time,seconds_elapsed,z,y,x
1696082322313130500,0.311130615234375,-0.03420845419168472,-0.2968805134296417,0.0959058403968811
1696082322323130600,0.321130615234375,-0.07147123664617538,-0.323147714138031,0.16859880089759827
1696082322333130500,0.331130615234375,-0.09529497474431992,-0.4239404797554016,0.28588494658470154
1696082322343130600,0.341130615234375,-0.08124507963657379,-0.5656611919403076,0.4092797040939331
1696082322353130500,0.351130615234375,-0.01771509274840355,-0.8741481900215149,0.49724429845809937
1696082322363130600,0.361130615234375,-0.01466076634824276,-1.2919800281524658,0.5894849896430969
1696082322373130500,0.371130615234375,0.01710422709584236,-1.9773707389831543,0.7232644557952881
1696082322383130600,0.381130615234375,-0.021380282938480377,-2.7262916564941406,0.8552113175392151
1696082322393130500,0.391130615234375,-0.012828170321881771,-3.355482816696167,0.9773843884468079
1696082322403130600,0.401130615234375,0.04153883829712868,-3.8765509128570557,1.092837929725647
1696082322413130500,0.411130615234375,0.02076941914856434,-4.207028865814209,1.1624765396118164
1696082322423130600,0.421130615234375,-0.060475658625364304,-4.414112091064453,1.1997393369674683
1696082322433130500,0.431130615234375,-0.18814650177955627,-4.5100178718566895,1.238223910331726
1696082322443130600,0.441130615234375,-0.36529740691185,-4.585765361785889,1.2797627449035645
1696082322453130500,0.451130615234375,-0.5711590051651001,-4.6688432693481445,1.312138557434082
1696082322463130600,0.461130615234375,-0.7641924023628235,-4.775744438171387,1.3267992734909058
1696082322473130500,0.471130615234375,-0.9376781582832336,-4.922352313995361,1.2980886697769165
1696082322483130600,0.481130615234375,-1.0684033632278442,-5.084231376647949,1.1997393369674683
1696082322493130500,0.491130615234375,-1.1252137422561646,-5.2412238121032715,1.0329731702804565
1696082322503130600,0.501130615234375,-1.1447614431381226,-5.340795040130615,0.8411614298820496
1696082322513130500,0.511130615234375,-1.1557570695877075,-5.3921074867248535,0.6420193910598755
1696082322523130600,0.521130615234375,-1.150259256362915,-5.345681667327881,0.37690386176109314
1696082322533130500,0.531130615234375,-1.2040153741836548,-5.135544300079346,-0.13500121235847473
1696082322543130600,0.541130615234375,-1.178359031677246,-5.21984338760376,-0.6957755088806152
1696082322553130500,0.551130615234375,-1.0317513942718506,-5.860030174255371,-1.103833556175232
1696082322563130600,0.561130615234375,-0.9004153609275818,-5.545434474945068,-1.2315043210983276
1696082322573130200,0.571130126953125,-0.7929030656814575,-5.2528300285339355,-1.350012183189392
1696082322583130000,0.581130126953125,-0.5601634383201599,-5.70548152923584,-1.3249666690826416
1696082322593130200,0.591130126953125,-0.22846360504627228,-6.33650541305542,-1.4013248682022095
1696082322603130000,0.601130126953125,-0.04703662544488907,-5.612019062042236,-1.1129964590072632
1696082322613130200,0.611130126953125,0.09712757170200348,-3.3035593032836914,-0.35185837745666504
1696082322623129900,0.6211298828125,0.6407976150512695,-1.0922271013259888,0.1508837193250656
1696082322633130000,0.6311298828125,1.2626584768295288,-0.001832595793530345,0.14844025671482086
1696082322643129900,0.6411298828125,1.6413949728012085,-0.3878994286060333,-0.41172316670417786
1696082322653130000,0.6511298828125,1.93766450881958,-0.7641924023628235,-1.1740829944610596
1696082322663129900,0.6611298828125,2.138639211654663,-0.8698720932006836,-1.9370536804199219
1696082322673130000,0.6711298828125,2.3017401695251465,-0.827111542224884,-2.6035077571868896
1696082322683129900,0.6811298828125,2.4495697021484375,-0.6475171446800232,-3.059823989868164
1696082322693130000,0.6911298828125,2.5925121307373047,-0.3689626157283783,-3.3066136837005615
1696082322703129900,0.7011298828125,2.73606538772583,-0.23151792585849762,-3.327993869781494
1696082322713130000,0.7111298828125,2.8289170265197754,-0.14966198801994324,-3.0830368995666504
1696082322723129900,0.7211298828125,3.0060677528381348,-0.021380282938480377,-2.724458932876587
1696082322733130000,0.7311298828125,3.279735565185547,0.24556782841682434,-2.406809091567993
1696082322743129900,0.7411298828125,3.6395351886749268,0.4288274049758911,-2.2241604328155518
1696082322753130000,0.7511298828125,4.1551055908203125,0.35613444447517395,-2.214386463165283
1696082322763129900,0.7611298828125,4.638299942016602,-0.03237585723400116,-2.3469443321228027
1696082322773130000,0.7711298828125,4.886311054229736,-0.6243042945861816,-2.517986536026001
1696082322783129900,0.7811298828125,4.910134792327881,-1.1612548828125,-2.621833562850952
1696082322793130000,0.7911298828125,4.800789833068848,-1.5161675214767456,-2.5705208778381348
1696082322803129900,0.8011298828125,4.637078285217285,-1.6120734214782715,-2.381152629852295
1696082322813130000,0.8111298828125,4.429994583129883,-1.4850133657455444,-2.124589204788208
1696082322823129900,0.8211298828125,4.043316841125488,-1.1178834438323975,-1.8234328031539917
1696082322833130000,0.8311298828125,3.4465017318725586,-0.8802568316459656,-1.4117095470428467
1696082322843129900,0.8411298828125,2.7812695503234863,-1.0616837739944458,-0.8833111524581909
1696082322853130000,0.8511298828125,2.2461514472961426,-1.5485434532165527,-0.3781255781650543
1696082322863129900,0.8611298828125,1.9462167024612427,-2.322509765625,-0.027488935738801956
1696082322873130200,0.871130126953125,1.7922786474227905,-3.327993869781494,0.17409659922122955
1696082322883130400,0.88113037109375,1.6255123615264893,-4.5100178718566895,0.3549126982688904
1696082322893130200,0.891130126953125,1.4104878902435303,-5.52222204208374,0.5406157374382019
1696082322903130400,0.90113037109375,0.96883225440979,-5.881410598754883,0.7220427393913269
1696082322913130200,0.911130126953125,0.30482175946235657,-6.318179130554199,0.9804387092590332
1696082322923131400,0.92113134765625,-0.1514945775270462,-6.980967998504639,1.359786033630371
1696082322933131300,0.93113134765625,-0.34208452701568604,-7.1507887840271,1.5454890727996826
1696082322943131400,0.94113134765625,-0.7440338730812073,-6.928433418273926,1.3182471990585327
1696082322953131300,0.95113134765625,-1.1759155988693237,-6.563136100769043,0.9566149711608887
1696082322963131400,0.96113134765625,-1.5668693780899048,-6.033515930175781,0.41661009192466736
1696082322973131300,0.97113134765625,-1.8332066535949707,-5.4953436851501465,-0.08552113175392151
1696082322983131100,0.981131103515625,-1.9223929643630981,-4.9535064697265625,-0.5870414972305298
1696082322993131300,0.99113134765625,-1.9535470008850098,-4.37074089050293,-1.0427470207214355
1696082323003131100,1.001131103515625,-1.977981686592102,-3.787975311279297,-1.3530665636062622
1696082323013131300,1.01113134765625,-1.9724838733673096,-2.883283853530884,-1.5656476020812988
1696082323023131000,1.021130859375,-1.9437731504440308,-1.8777997493743896,-1.7085901498794556
1696082323033130800,1.031130859375,-1.8380935192108154,-0.8527678847312927,-1.7751743793487549
1696082323043131000,1.041130859375,-1.598023533821106,0.010995574295520782,-1.7800613641738892
1696082323053130800,1.051130859375,-1.254717230796814,0.5852088928222656,-1.6896532773971558
1696082323063131000,1.061130859375,-0.8356636762619019,1.0231993198394775,-1.4691308736801147
1696082323073130800,1.071130859375,-0.3445279896259308,1.4257594347000122,-1.141707181930542
1696082323083131000,1.081130859375,0.19547687470912933,1.7660114765167236,-0.8026769161224365
1696082323093130800,1.091130859375,0.7177666425704956,1.9785925149917603,-0.5088507533073425
1696082323103131000,1.101130859375,1.1966849565505981,2.147191286087036,-0.26633724570274353
1696082323113130800,1.111130859375,1.6401731967926025,2.347555160522461,-0.0757472887635231
1696082323123131000,1.121130859375,2.004859685897827,2.411695957183838,0.04459316283464432
1696082323133130000,1.1311298828125,2.403143882751465,1.9578231573104858,0.01771509274840355
1696082323143129900,1.1411298828125,2.7476718425750732,1.8026633262634277,-0.08185594528913498
1696082323153130000,1.1511298828125,2.791654109954834,1.9419406652450562,-0.0708603709936142
1696082323163129900,1.1611298828125,2.563190460205078,2.059837579727173,-0.014049900695681572
1696082323173130000,1.1711298828125,2.22477126121521,2.166738986968994,-0.0012217304902151227
1696082323183131100,1.181131103515625,1.881464958190918,2.2314908504486084,-0.12217304855585098
1696082323193131000,1.191131103515625,1.5534303188323975,2.102598190307617,-0.413555771112442
1696082323203131100,1.201131103515625,1.2504411935806274,1.778228759765625,-0.8631525635719299
1696082323213131000,1.211131103515625,0.8827002644538879,1.4367550611495972,-1.4159855842590332
1696082323223130400,1.22113037109375,0.47830748558044434,1.1233811378479004,-1.9144517183303833
1696082323233129700,1.231129638671875,0.03420845419168472,0.8301658630371094,-2.3218986988067627
1696082323243129900,1.2411298828125,-0.32681289315223694,0.4337143301963806,-2.704911231994629
1696082323253129700,1.251129638671875,-0.49357911944389343,0.06902777403593063,-3.0225613117218018
1696082323263129900,1.2611298828125,-0.5082398653030396,-0.21441370248794556,-3.299894094467163
1696082323273130000,1.2711298828125,-0.37629300355911255,-0.47280970215797424,-3.5607335567474365
1696082323283130000,1.281130126953125,-0.18814650177955627,-0.5442809462547302,-3.740327835083008
1696082323293130200,1.291130126953125,-0.029932396486401558,-0.43249258399009705,-3.7751471996307373
1696082323303130000,1.301130126953125,0.09162978827953339,-0.11545353382825851,-3.7446038722991943
1696082323313130200,1.311130126953125,0.20463985204696655,0.37751471996307373,-3.671300172805786
1696082323323130600,1.321130615234375,0.09529497474431992,0.3738495409488678,-3.0616567134857178
1696082323333130200,1.331130126953125,-0.6707300543785095,0.1466076523065567,-1.797776460647583
1696082323343130000,1.341130126953125,-1.5699236392974854,0.02871066704392433,-0.9651671051979065
1696082323353130200,1.351130126953125,-2.0787744522094727,-0.20463985204696655,-0.949895441532135
1696082323363130000,1.361130126953125,-2.1319196224212646,-0.48197266459465027,-1.0946705341339111
1696082323373130200,1.371130126953125,-1.9437731504440308,-0.7513642311096191,-1.0366383790969849
1696082323383130000,1.381130126953125,-1.7482963800430298,-0.6664539575576782,-0.8998045325279236
1696082323393130200,1.391130126953125,-1.5149458646774292,-0.14233160018920898,-0.7965682744979858
1696082323403130000,1.401130126953125,-1.4410310983657837,0.16371189057826996,-0.7348709106445312
1696082323413130200,1.411130126953125,-1.312138557434082,0.7409795522689819,-0.6310238242149353
1696082323423130000,1.421130126953125,-1.1368201971054077,1.1331549882888794,-0.5729916095733643
1696082323433130800,1.431130859375,-0.8411614298820496,0.9334021210670471,-0.5516113042831421
1696082323443130600,1.441130615234375,-0.6236934065818787,0.7580837607383728,-0.5766568183898926
1696082323456734200,1.454734130859375,-0.08796459436416626,0.4190535545349121,-0.6817256212234497
1696082323466734000,1.464734130859375,0.4306600093841553,0.26939156651496887,-0.5699372887611389
1696082323476734200,1.474734130859375,1.803274154663086,0.27488934993743896,-0.21319197118282318
1696082323486733000,1.484733154296875,3.0109548568725586,0.22663100063800812,-0.413555771112442
1696082323496733000,1.49473291015625,2.872899293899536,1.2718214988708496,-0.30115658044815063
1696082323506733000,1.504733154296875,1.863139033317566,2.456900119781494,-0.5674937963485718
1696082323516733000,1.51473291015625,0.4764748811721802,3.0854804515838623,-1.340238332748413
1696082323526733000,1.524733154296875,-0.32070425152778625,3.079371690750122,-2.0250182151794434
1696082323536733400,1.5347333984375,-0.5070181488990784,2.3102922439575195,-2.344500780105591
1696082323546733300,1.5447333984375,-0.5302310585975647,1.6022995710372925,-1.9932533502578735
1696082323556733400,1.5547333984375,-0.46364670991897583,1.3145819902420044,-1.36955988407135
1696082323566733300,1.5647333984375,-0.1667662113904953,1.1899654865264893,-0.8093964457511902
1696082323576733400,1.5747333984375,-0.02626720629632473,1.2376129627227783,-0.3543018400669098
1696082323586733000,1.584733154296875,-0.05253441259264946,1.32863187789917,-0.06108652427792549
1696082323596733200,1.594733154296875,-0.1820378452539444,1.587027907371521,0.3078760802745819
1696082323606733000,1.604733154296875,-0.3897320330142975,1.397048830986023,0.8558222055435181
1696082323616733200,1.614733154296875,-0.4196644127368927,1.10139000415802,1.3506230115890503
1696082323626733000,1.624733154296875,-0.10384709388017654,0.626747727394104,1.6273449659347534
1696082323636733400,1.6347333984375,0.3604104816913605,-0.29016098380088806,1.5204435586929321
1696082323646733600,1.644733642578125,0.31031954288482666,-0.4447098970413208,1.4874569177627563
1696082323656733400,1.6547333984375,-0.004886921960860491,0.2015855312347412,0.5913175344467163
1696082323666733600,1.664733642578125,-0.05925392732024193,1.3469579219818115,-0.9535606503486633
1696082323676733400,1.6747333984375,-0.2791654169559479,2.232712507247925,-1.7580702304840088
1696082323686733600,1.684733642578125,0.4612032473087311,2.439795732498169,-2.4355196952819824
1696082323696733400,1.6947333984375,1.4550809860229492,1.6890424489974976,-2.648711681365967
1696082323706733600,1.704733642578125,2.3695461750030518,1.0561859607696533,-2.253481864929199
1696082323716733400,1.7147333984375,2.9822440147399902,0.6591235995292664,-1.5943583250045776
1696082323726733600,1.724733642578125,3.6810739040374756,-0.25595253705978394,-0.846659243106842
1696082323736734000,1.73473388671875,4.540561199188232,-1.5387696027755737,-0.38606682419776917
1696082323746733800,1.74473388671875,5.390885829925537,-2.6059510707855225,0.04459316283464432
1696082323756734200,1.754734130859375,6.247318744659424,-3.430619239807129,0.7415903806686401
1696082323766734000,1.764734130859375,7.186218738555908,-2.5692992210388184,1.616349458694458
1696082323776734200,1.774734130859375,7.910705089569092,-1.0574077367782593,2.289522886276245
1696082323786734000,1.784734130859375,8.24606990814209,-0.07513642311096191,2.677422285079956
1696082323796734200,1.794734130859375,8.351139068603516,0.9553932547569275,2.850297212600708
1696082323806734000,1.804734130859375,8.361523628234863,1.986533761024475,2.791654109954834
1696082323816734200,1.814734130859375,8.310211181640625,2.677422285079956,2.5833492279052734
1696082323826734000,1.824734130859375,8.135503768920898,2.8545732498168945,2.0665571689605713
1696082323836734200,1.834734130859375,7.687128067016602,2.2711970806121826,1.4941763877868652
1696082323846734000,1.844734130859375,6.530149459838867,1.160033106803894,1.016479730606079
1696082323856734200,1.854734130859375,5.250997543334961,0.8772025108337402,0.7550294399261475
1696082323866734000,1.864734130859375,4.045149803161621,-0.016493361443281174,0.3878994286060333
1696082323876734200,1.874734130859375,2.7146852016448975,-2.0977113246917725,-0.2125810980796814
1696082323886734000,1.884734130859375,1.1362093687057495,-3.8796050548553467,-0.9639453291893005
1696082323896734200,1.894734130859375,0.06536258012056351,-4.1887030601501465,-1.379333734512329
1696082323906734000,1.904734130859375,-0.6322455406188965,-3.6890151500701904,-1.3518447875976562
1696082323916734200,1.914734130859375,-1.1997393369674683,-2.4660630226135254,-1.0616837739944458
1696082323926734000,1.924734130859375,-1.9132299423217773,-0.636521577835083,-0.9004153609275818
1696082323936734200,1.934734130859375,-2.3744332790374756,0.9291260242462158,-0.6579018831253052
1696082323946734000,1.944734130859375,-2.3035728931427,1.8209892511367798,-0.40133845806121826
1696082323956734200,1.954734130859375,-1.813048005104065,2.2821924686431885,-0.3585779070854187
1696082323966734300,1.964734375,-1.1728612184524536,2.4410176277160645,-0.5571091175079346
1696082323976734200,1.974734130859375,-0.46731191873550415,2.4239132404327393,-0.759916365146637
1696082323986734300,1.984734375,0.11545353382825851,2.0274617671966553,-1.2455542087554932
1696082323996734200,1.994734130859375,0.5742133259773254,1.7544050216674805,-1.852143406867981
1696082324006734300,2.004734375,0.7018841505050659,2.3182334899902344,-1.9394971132278442
1696082324016734200,2.014734130859375,0.9957103729248047,3.3182199001312256,-1.9346102476119995
1696082324026734300,2.024734375,1.539380431175232,3.9211440086364746,-2.2577579021453857
1696082324036734200,2.034734130859375,2.085494041442871,4.467257499694824,-2.9553661346435547
1696082324046734300,2.044734375,2.3793201446533203,5.091561794281006,-3.5436291694641113
1696082324056734200,2.054734130859375,2.4520130157470703,5.118439674377441,-3.802025318145752
1696082324066734300,2.064734375,2.3774874210357666,4.477642059326172,-3.7116172313690186
1696082324076734200,2.074734130859375,2.211332082748413,2.648711681365967,-3.0329458713531494
1696082324086734300,2.084734375,2.0873265266418457,0.5510004758834839,-1.8026633262634277
1696082324096734200,2.094734130859375,2.0500638484954834,-1.0891727209091187,-0.7147123217582703
1696082324106734300,2.104734375,2.049452781677246,-2.258368730545044,0.1313360333442688
1696082324116734200,2.114734130859375,2.037846565246582,-2.8906142711639404,0.6090326309204102
1696082324126734300,2.124734375,2.034792184829712,-3.1978795528411865,0.8845328688621521
1696082324136734200,2.134734130859375,2.0567831993103027,-3.254689931869507,0.9627236127853394
1696082324146734300,2.144734375,2.094046115875244,-2.8851165771484375,0.7562511563301086
1696082324156734200,2.154734130859375,1.7971655130386353,-2.1197023391723633,0.4508185386657715
1696082324166734300,2.164734375,1.1270463466644287,-1.1759155988693237,0.16737708449363708
1696082324176734200,2.174734130859375,0.3781255781650543,-0.5833762884140015,0.016493361443281174
1696082324186734300,2.184734375,-0.26939156651496887,-0.33047810196876526,-0.2718350291252136
1696082324196734200,2.194734130859375,-0.607810914516449,-0.33475416898727417,-0.4593706727027893
1696082324206734300,2.204734375,-0.4905247986316681,-0.5375614166259766,-0.5619960427284241
1696082324216734200,2.214734130859375,-0.04337143152952194,-0.7373143434524536,-0.578489363193512
1696082324226734300,2.224734375,0.2993239760398865,-0.6939429044723511,-0.6133087277412415
1696082324236734200,2.234734130859375,0.4343251883983612,-0.43188172578811646,-0.6640105247497559
1696082324246734300,2.244734375,0.4550946056842804,-0.14477506279945374,-0.626747727394104
1696082324256734200,2.254734130859375,0.3836233615875244,0.14538592100143433,-0.5112941861152649
1696082324266734300,2.264734375,0.22052235901355743,0.2535090744495392,-0.303600013256073
1696082324276734200,2.274734130859375,0.09040805697441101,0.21624629199504852,-0.06352998316287994
1696082324286734300,2.284734375,0.00366519158706069,0.18081611394882202,0.13011430203914642
1696082324296734200,2.294734130859375,-0.05314527451992035,0.1722639948129654,0.22968533635139465
1696082324306734300,2.304734375,-0.02871066704392433,0.18081611394882202,0.23151792585849762
1696082324316734200,2.314734130859375,0.06963863968849182,0.15821409225463867,0.15821409225463867
1696082324326734300,2.324734375,0.17592918872833252,0.08307767659425735,0.03420845419168472
1696082324336734200,2.334734130859375,0.251676470041275,-0.001832595793530345,-0.10201449692249298
1696082324346734300,2.344734375,0.27122417092323303,-0.03787364438176155,-0.20402899384498596
1696082324356734200,2.354734130859375,0.2528982162475586,0.03848451003432274,-0.2565633952617645
1696082324366734300,2.364734375,0.2168571650981903,0.1765400618314743,-0.2681698501110077
1696082324376734200,2.374734130859375,0.17348572611808777,0.2919935882091522,-0.2370157092809677
1696082324386734300,2.384734375,0.12278391420841217,0.3390302062034607,-0.1814269721508026
1696082324396734200,2.394734130859375,0.08307767659425735,0.3127630054950714,-0.13744467496871948
1696082324406734300,2.404734375,0.06230825558304787,0.1973094791173935,-0.1258382350206375
1696082324416734200,2.414734130859375,0.04153883829712868,0.04459316283464432,-0.14782938361167908
1696082324426734300,2.424734375,0.02382374368607998,-0.07941248267889023,-0.19486601650714874
1696082324436734200,2.434734130859375,0.018936822190880775,-0.15515977144241333,-0.23518311977386475
1696082324446734300,2.444734375,0.00733038317412138,-0.19608774781227112,-0.23029619455337524
1696082324456734200,2.454734130859375,-0.015271631069481373,-0.21502456068992615,-0.19608774781227112
1696082324466734300,2.464734375,-0.027488935738801956,-0.22479841113090515,-0.16554448008537292
1696082324476734200,2.474734130859375,-0.021991148591041565,-0.24495697021484375,-0.15454891324043274
1696082324486734300,2.484734375,0,-0.2785545587539673,-0.15027284622192383
1696082324496734200,2.494734130859375,0.027488935738801956,-0.29993483424186707,-0.15027284622192383
1696082324506734300,2.504734375,0.06169738993048668,-0.313373863697052,-0.14477506279945374
1696082324516734200,2.514734130859375,0.09285151958465576,-0.34086281061172485,-0.12339477986097336
1696082324526734000,2.524734130859375,0.10995574295520782,-0.3891211748123169,-0.08674286305904388
1696082324536734200,2.534734130859375,0.11484266817569733,-0.4392121136188507,-0.03481931984424591
1696082324546734000,2.544734130859375,0.1160643994808197,-0.48197266459465027,0.016493361443281174
1696082324556734200,2.554734130859375,0.12217304855585098,-0.5088507533073425,0.05253441259264946
1696082324566734000,2.564734130859375,0.14416420459747314,-0.5192354321479797,0.07269296050071716
1696082324576734200,2.574734130859375,0.16737708449363708,-0.5119050741195679,0.08552113175392151
1696082324586734000,2.584734130859375,0.1765400618314743,-0.47342056035995483,0.09957103431224823
1696082324596734200,2.594734130859375,0.1569923609495163,-0.40072759985923767,0.11301007121801376
1696082324606734000,2.604734130859375,0.1160643994808197,-0.30604347586631775,0.11056660860776901
1696082324616734200,2.614734130859375,0.07269296050071716,-0.2217440903186798,0.07269296050071716
1696082324626734000,2.624734130859375,0.025656340643763542,-0.15821409225463867,-0.015271631069481373
1696082324636734200,2.634734130859375,-0.01710422709584236,-0.17104226350784302,-0.1319468915462494
1696082324646734000,2.644734130859375,-0.039706241339445114,-0.23640485107898712,-0.21441370248794556
1696082324656734200,2.654734130859375,-0.06780604273080826,-0.28527405858039856,-0.21868975460529327
1696082324666734000,2.664734130859375,-0.10506882518529892,-0.2926044464111328,-0.15332718193531036
1696082324676734200,2.674734130859375,-0.13927727937698364,-0.28527405858039856,-0.07757988572120667
1696082324686734000,2.684734130859375,-0.1508837193250656,-0.28955012559890747,-0.04153883829712868
1696082324696734200,2.694734130859375,-0.1270599663257599,-0.30970868468284607,-0.051312681287527084
1696082324706734000,2.704734130859375,-0.08857546001672745,-0.3188716471195221,-0.07941248267889023
1696082324716734200,2.714734130859375,-0.048258353024721146,-0.30604347586631775,-0.11423180252313614
1696082324726734000,2.724734130859375,-0.01160643994808197,-0.27611109614372253,-0.152105450630188
1696082324736734200,2.734734130859375,0.027488935738801956,-0.22052235901355743,-0.17348572611808777
1696082324746734000,2.744734130859375,0.07269296050071716,-0.1411098688840866,-0.16493362188339233
1696082324756734200,2.754734130859375,0.12400564551353455,-0.06352998316287994,-0.11972958594560623
1696082324766734000,2.764734130859375,0.17776179313659668,-0.02321287989616394,-0.04886921867728233
1696082324776734200,2.774734130859375,0.2174680233001709,-0.0354301854968071,0.024434609338641167
1696082324786734000,2.784734130859375,0.24068090319633484,-0.08429940044879913,0.06719517707824707
1696082324796734200,2.794734130859375,0.25106561183929443,-0.13255776464939117,0.06658431142568588
1696082324806734000,2.804734130859375,0.2583959996700287,-0.17287486791610718,0.03237585723400116
1696082324816734200,2.814734130859375,0.27488934993743896,-0.17776179313659668,-0.03237585723400116
1696082324826734000,2.824734130859375,0.29138273000717163,-0.1618792861700058,-0.11667526513338089
1696082324836734200,2.834734130859375,0.2981022298336029,-0.15027284622192383,-0.20525072515010834
1696082324846734000,2.844734130859375,0.2974913716316223,-0.14355333149433136,-0.28955012559890747
1696082324856734200,2.854734130859375,0.2968805134296417,-0.1313360333442688,-0.3683517575263977
1696082324866734000,2.864734130859375,0.29993483424186707,-0.12095131725072861,-0.44287729263305664
1696082324876734200,2.874734130859375,0.3170390725135803,-0.12400564551353455,-0.4899139404296875
1696082324886734000,2.884734130859375,0.33719760179519653,-0.1417207419872284,-0.4911356568336487
1696082324896734200,2.894734130859375,0.34513887763023376,-0.16493362188339233,-0.46242499351501465
1696082324906734000,2.904734130859375,0.34208452701568604,-0.18387043476104736,-0.43799036741256714
1696082324916734200,2.914734130859375,0.34086281061172485,-0.19486601650714874,-0.44593164324760437
1696082324926734000,2.924734130859375,0.35063666105270386,-0.19058994948863983,-0.47708576917648315
1696082324936734200,2.934734130859375,0.36224308609962463,-0.18509216606616974,-0.5149593949317932
1696082324946734000,2.944734130859375,0.37201693654060364,-0.18081611394882202,-0.5357288122177124
1696082324956734200,2.954734130859375,0.36163222789764404,-0.19486601650714874,-0.5400048494338989
1696082324966734300,2.964734375,0.33047810196876526,-0.22540926933288574,-0.5338962078094482
1696082324976734200,2.974734130859375,0.28955012559890747,-0.2785545587539673,-0.5192354321479797
1696082324986734300,2.984734375,0.2590068578720093,-0.34574973583221436,-0.48685958981513977
1696082324996734200,2.994734130859375,0.2480112910270691,-0.40072759985923767,-0.4141666293144226
1696082325006734300,3.004734375,0.2565633952617645,-0.4355469346046448,-0.2987131178379059
1696082325016734200,3.014734130859375,0.2834414839744568,-0.485027015209198,-0.14416420459747314
1696082325026734300,3.024734375,0.32009339332580566,-0.5607742667198181,0.04153883829712868
1696082325036734200,3.034734130859375,0.3488040566444397,-0.6212499737739563,0.25595253705978394
1696082325046734300,3.044734375,0.34208452701568604,-0.6157521605491638,0.4709770977497101
1696082325056734200,3.054734130859375,0.27550023794174194,-0.5051855444908142,0.6829473376274109
1696082325066734300,3.064734375,0.15943582355976105,-0.251676470041275,0.8747590184211731
1696082325076734000,3.07473388671875,-0.005497787147760391,0.06352998316287994,0.9944885969161987
1696082325086733800,3.08473388671875,-0.21502456068992615,0.30970868468284607,1.0073168277740479
1696082325096734000,3.09473388671875,-0.4715879559516907,0.3695734739303589,0.9248499870300293
1696082325106733800,3.10473388671875,-0.7318165898323059,0.23396138846874237,0.8772025108337402
1696082325116734000,3.11473388671875,-0.959669291973114,0.08185594528913498,0.9950994849205017
1696082325126733800,3.12473388671875,-1.1618657112121582,0.025045474991202354,1.292590856552124
1696082325136734000,3.13473388671875,-1.3274102210998535,0.018325956538319588,1.7159204483032227
1696082325146733800,3.14473388671875,-1.4184291362762451,-0.10323622822761536,2.2101104259490967
1696082325156733700,3.154733642578125,-1.4605787992477417,-0.40622538328170776,2.657874584197998
1696082325166733800,3.16473388671875,-1.4599679708480835,-0.6988298296928406,2.886338233947754
1696082325176733700,3.174733642578125,-1.4086552858352661,-0.8949176073074341,2.836247444152832
1696082325186733800,3.18473388671875,-1.3341296911239624,-1.0030407905578613,2.543031930923462
1696082325196733700,3.194733642578125,-1.2400563955307007,-1.0403034687042236,2.1282544136047363
1696082325206733800,3.20473388671875,-1.1252137422561646,-1.0415252447128296,1.7446311712265015
1696082325216733700,3.214733642578125,-1.0128145217895508,-1.0775662660598755,1.5125023126602173
1696082325226733800,3.22473388671875,-0.950506329536438,-1.0824532508850098,1.4159855842590332
1696082325236733700,3.234733642578125,-0.9615018963813782,-0.979827880859375,1.378722906112671
1696082325246733800,3.24473388671875,-1.0085384845733643,-0.9364564418792725,1.415374755859375
1696082325256733700,3.254733642578125,-1.074512004852295,-0.8582656979560852,1.454470157623291
1696082325266733600,3.264733642578125,-1.1264355182647705,-0.578489363193512,1.4074335098266602
1696082325276733700,3.274733642578125,-1.1844676733016968,-0.25473082065582275,1.3506230115890503
1696082325286733600,3.284733642578125,-1.2180652618408203,0.006719517521560192,1.3176363706588745
1696082325296733700,3.294733642578125,-1.2137892246246338,0.27061331272125244,1.2614367008209229
1696082325306733600,3.304733642578125,-1.1771373748779297,0.39706242084503174,1.2021827697753906
1696082325316733700,3.314733642578125,-1.1233811378479004,0.3341432809829712,1.1899654865264893
1696082325326733800,3.32473388671875,-1.0910053253173828,0.16859880089759827,1.215621829032898
1696082325336733700,3.334733642578125,-1.0781772136688232,-0.01038470957428217,1.2522737979888916
1696082325346733800,3.34473388671875,-1.0671815872192383,-0.14844025671482086,1.2748757600784302
1696082325356733700,3.354733642578125,-1.062294602394104,-0.1661553531885147,1.2589932680130005
1696082325366733800,3.36473388671875,-1.0604621171951294,-0.05803219974040985,1.205847978591919
1696082325376734200,3.374734130859375,-1.0286970138549805,0.1007927656173706,1.150259256362915
1696082325386734000,3.384734130859375,-0.9456194043159485,0.22479841113090515,1.0977247953414917
1696082325396734500,3.394734375,-0.8234463334083557,0.3286454975605011,1.0317513942718506
1696082325406734600,3.404734619140625,-0.6805039048194885,0.43188172578811646,0.9566149711608887
1696082325416734500,3.414734375,-0.5534439086914062,0.4905247986316681,0.8607091307640076
1696082325426734600,3.424734619140625,-0.4648684561252594,0.5088507533073425,0.759916365146637
1696082325436734500,3.434734375,-0.4129449129104614,0.494189977645874,0.6401867866516113
1696082325446734600,3.444734619140625,-0.37262779474258423,0.4691445231437683,0.5112941861152649
1696082325456734700,3.454734619140625,-0.3286454975605011,0.46364670991897583,0.38606682419776917
1696082325466734600,3.464734619140625,-0.27122417092323303,0.4801400899887085,0.2541199326515198
1696082325476734700,3.474734619140625,-0.1869247704744339,0.5265658497810364,0.11423180252313614
1696082325486734600,3.484734619140625,-0.07880161702632904,0.5876523852348328,-0.02626720629632473
1696082325496734700,3.494734619140625,0.042760565876960754,0.6499606370925903,-0.17592918872833252
1696082325506734600,3.504734619140625,0.18325957655906677,0.7018841505050659,-0.33475416898727417
1696082325516734700,3.514734619140625,0.32559117674827576,0.7189884185791016,-0.5009095072746277
1696082325526734600,3.524734619140625,0.45692721009254456,0.6841690540313721,-0.6719517707824707
1696082325536734700,3.534734619140625,0.5485569834709167,0.617584764957428,-0.8301658630371094
1696082325546734600,3.544734619140625,0.5864306092262268,0.607810914516449,-0.969443142414093
1696082325556734700,3.554734619140625,0.6023131608963013,0.7244861721992493,-1.0922271013259888
1696082325566734600,3.564734619140625,0.6322455406188965,0.9248499870300293,-1.1814134120941162
1696082325576734700,3.574734619140625,0.6304129362106323,1.1197160482406616,-1.2431107759475708
1696082325586734600,3.584734619140625,0.5583308339118958,1.2046263217926025,-1.2986994981765747
1696082325596734700,3.594734619140625,0.43737950921058655,1.186300277709961,-1.3469579219818115
1696082325606734600,3.604734619140625,0.28466320037841797,1.0390818119049072,-1.2791517972946167
1696082325616734700,3.614734619140625,0.09773843735456467,0.7550294399261475,-1.054964303970337
1696082325626734600,3.624734619140625,-0.14905111491680145,0.3732386529445648,-0.6890559792518616
1696082325636734700,3.634734619140625,-0.42638394236564636,0.05619960278272629,-0.17287486791610718
1696082325646734600,3.644734619140625,-0.6340781450271606,-0.015882495790719986,0.22418753802776337
1696082325656734700,3.654734619140625,-0.7110471725463867,0.07819075137376785,0.22968533635139465
1696082325666734600,3.664734619140625,-0.6719517707824707,0.21074850857257843,-0.09162978827953339
1696082325676734700,3.674734619140625,-0.5650503635406494,0.08796459436416626,-0.375071257352829
1696082325686734600,3.684734619140625,-0.46181413531303406,-0.35185837745666504,-0.4434881806373596
1696082325696734200,3.694734130859375,-0.37201693654060364,-0.7764097452163696,-0.44165557622909546
1696082325706734300,3.704734375,-0.24373523890972137,-0.9101892113685608,-0.3530801236629486
1696082325716733700,3.714733642578125,-0.05009094998240471,-0.7483099102973938,-0.06963863968849182
1696082325726733600,3.724733642578125,0.11301007121801376,-0.35124751925468445,0.2431243658065796
1696082325736733700,3.734733642578125,0.22418753802776337,-0.13866640627384186,0.36713001132011414
1696082325746733600,3.744733642578125,0.41111230850219727,-0.42271876335144043,0.4147774875164032
1696082325756733200,3.754733154296875,0.5766568183898926,-0.6743952035903931,0.4550946056842804
1696082325766733300,3.7647333984375,0.6963863968849182,-0.6548475623130798,0.45814892649650574
1696082325776733200,3.774733154296875,0.770301103591919,-0.6041457056999207,0.3579670190811157
1696082325786733300,3.7847333984375,0.8252789378166199,-0.5962044596672058,0.17531833052635193
1696082325796733700,3.794733642578125,0.8729264140129089,-0.6499606370925903,-0.04153883829712868
1696082325806733800,3.80473388671875,0.9089674949645996,-0.6444628238677979,-0.26633724570274353
1696082325816733700,3.814733642578125,0.96883225440979,-0.5455026626586914,-0.4495968222618103
1696082325826733800,3.82473388671875,1.0482447147369385,-0.46792277693748474,-0.5571091175079346
1696082325836733700,3.834733642578125,1.0971139669418335,-0.5424483418464661,-0.7312057018280029
1696082325846733800,3.84473388671875,1.1331549882888794,-0.7916813492774963,-1.0995573997497559
1696082325856733700,3.854733642578125,1.1429288387298584,-1.0531316995620728,-1.5302174091339111
1696082325866733800,3.86473388671875,1.1246029138565063,-1.1728612184524536,-1.8509217500686646
1696082325876733700,3.874733642578125,1.0958921909332275,-1.1740829944610596,-2.0005836486816406
1696082325886733800,3.88473388671875,1.062294602394104,-1.1313223838806152,-1.995696783065796
1696082325896733700,3.894733642578125,0.9779952764511108,-1.0458012819290161,-1.8509217500686646
1696082325906733800,3.90473388671875,0.816726803779602,-0.8668177723884583,-1.5894713401794434
1696082325916733700,3.914733642578125,0.6212499737739563,-0.5748242139816284,-1.2333369255065918
1696082325926733800,3.92473388671875,0.4789183437824249,-0.16249015927314758,-0.8747590184211731
1696082325936733700,3.934733642578125,0.4153883755207062,0.21380282938480377,-0.6310238242149353
1696082325946733800,3.94473388671875,0.4141666293144226,0.4495968222618103,-0.53328537940979
1696082325956733700,3.954733642578125,0.4502076804637909,0.6432411074638367,-0.5485569834709167
1696082325966733800,3.96473388671875,0.48808133602142334,0.7220427393913269,-0.6261368989944458
1696082325976733700,3.974733642578125,0.5180137157440186,0.6212499737739563,-0.7250970602035522
1696082325986733800,3.98473388671875,0.5210680365562439,0.32009339332580566,-0.8155050873756409
1696082325996733700,3.994733642578125,0.5021312236785889,-0.10018189996480942,-0.8619308471679688
1696082326006733800,4.00473388671875,0.48197266459465027,-0.4489859640598297,-0.8442157506942749
1696082326016734500,4.014734375,0.4764748811721802,-0.7104362845420837,-0.788016140460968
1696082326026734300,4.024734375,0.47769662737846375,-0.817948579788208,-0.7153232097625732
1696082326036734500,4.034734375,0.46792277693748474,-0.8710938692092896,-0.6774495840072632
1696082326046734300,4.044734375,0.4758640229701996,-0.9669997096061707,-0.6988298296928406
1696082326056734700,4.054734619140625,0.49785518646240234,-1.073290228843689,-0.7476990818977356
1696082326066734800,4.06473486328125,0.5100724697113037,-1.0519099235534668,-0.7770205736160278
1696082326076734700,4.074734619140625,0.5222898125648499,-0.8069530129432678,-0.7648032903671265
1696082326086734800,4.08473486328125,0.5491678714752197,-0.523511528968811,-0.7348709106445312
1696082326096734200,4.094734130859375,0.5907067060470581,-0.38606682419776917,-0.7079927921295166
1696082326106734300,4.104734375,0.6096435189247131,-0.4141666293144226,-0.6957755088806152
1696082326116734000,4.11473388671875,0.5803219676017761,-0.5057964324951172,-0.6914994716644287
1696082326126733800,4.12473388671875,0.5265658497810364,-0.5540547966957092,-0.7141014933586121
1696082326136734000,4.13473388671875,0.47769662737846375,-0.5027421116828918,-0.788016140460968
1696082326146733800,4.14473388671875,0.45204028487205505,-0.4153883755207062,-0.9144652485847473
1696082326156734000,4.15473388671875,0.4703662395477295,-0.32070425152778625,-1.0238101482391357
1696082326166733800,4.16473388671875,0.5167919993400574,-0.2480112910270691,-1.0543533563613892
1696082326176734000,4.17473388671875,0.6053674817085266,-0.2474004179239273,-0.9718865752220154
1696082326186733800,4.18473388671875,0.7293730974197388,-0.3481931984424591,-0.7739662528038025
1696082326196733700,4.194733642578125,0.8527678847312927,-0.494189977645874,-0.49235737323760986
1696082326206733800,4.20473388671875,0.9150761365890503,-0.5644394755363464,-0.17959438264369965
1696082326216734000,4.21473388671875,0.9004153609275818,-0.4966334402561188,0.09285151958465576
1696082326226733800,4.22473388671875,0.8362745046615601,-0.3634648323059082,0.26633724570274353
1696082326236734000,4.23473388671875,0.7635815739631653,-0.29993483424186707,0.313373863697052
1696082326246733800,4.24473388671875,0.6939429044723511,-0.3396410644054413,0.26083946228027344
1696082326256733700,4.254733642578125,0.6047565937042236,-0.40683624148368835,0.16798794269561768
1696082326266733800,4.26473388671875,0.4691445231437683,-0.38117989897727966,0.07513642311096191
1696082326276733700,4.274733642578125,0.2687807083129883,-0.23151792585849762,0.02015855349600315
1696082326286733800,4.28473388671875,0.014049900695681572,0.03298672288656235,0.04092797264456749
1696082326296733700,4.294733642578125,-0.2541199326515198,0.304210901260376,0.13866640627384186
1696082326306733800,4.30473388671875,-0.485027015209198,0.504574716091156,0.2932153046131134
1696082326316733700,4.314733642578125,-0.6737843751907349,0.6866125464439392,0.5064072608947754
1696082326326733800,4.32473388671875,-0.8460483551025391,0.9071348905563354,0.7874053120613098
1696082326336733700,4.334733642578125,-1.0384708642959595,1.1673635244369507,1.0775662660598755
1696082326346733800,4.34473388671875,-1.2443325519561768,1.3683381080627441,1.3066407442092896
1696082326356733700,4.354733642578125,-1.4282029867172241,1.4141530990600586,1.4868459701538086
1696082326366733800,4.36473388671875,-1.6016886234283447,1.2999212741851807,1.7360789775848389
1696082326376733700,4.374733642578125,-1.758681058883667,1.0616837739944458,2.079996109008789
1696082326386733800,4.38473388671875,-1.870469331741333,0.6829473376274109,2.4526238441467285
1696082326396733700,4.394733642578125,-1.8820757865905762,0.18509216606616974,2.7714955806732178
1696082326406733800,4.40473388671875,-1.8136589527130127,-0.37751471996307373,2.9877419471740723
1696082326416734200,4.414734130859375,-1.80510675907135,-0.8741481900215149,3.028669834136963
1696082326426734000,4.424734130859375,-1.8307631015777588,-1.1905763149261475,2.877786159515381
1696082326436734200,4.434734130859375,-1.7140878438949585,-1.3585642576217651,2.585181713104248
1696082326446734000,4.444734130859375,-1.4465289115905762,-1.3548991680145264,2.194838762283325
1696082326456734200,4.454734130859375,-1.1673635244369507,-1.224173903465271,1.7641788721084595
1696082326466734300,4.464734375,-1.024420976638794,-1.0390818119049072,1.377501130104065
1696082326476734200,4.474734130859375,-1.0067058801651,-0.8344419002532959,1.0983357429504395
1696082326486734300,4.484734375,-1.0433578491210938,-0.6774495840072632,0.9841039180755615
1696082326496734200,4.494734130859375,-1.1050552129745483,-0.47708576917648315,1.0427470207214355
1696082326506734300,4.504734375,-1.19607412815094,-0.19853121042251587,1.2137892246246338
1696082326516734200,4.514734130859375,-1.273043155670166,0.15760323405265808,1.3536773920059204
1696082326526734300,4.524734375,-1.303586483001709,0.3927863538265228,1.395827054977417
1696082326536734200,4.534734130859375,-1.29381263256073,0.43737950921058655,1.3322970867156982
1696082326546734300,4.544734375,-1.2718214988708496,0.4337143301963806,1.208902359008789
1696082326556734200,4.554734130859375,-1.2553280591964722,0.4746423065662384,1.0891727209091187
1696082326566734300,4.564734375,-1.2424999475479126,0.4709770977497101,1.015868902206421
1696082326576734200,4.574734130859375,-1.236391305923462,0.35063666105270386,0.9865473508834839
1696082326586734300,4.584734375,-1.2217304706573486,0.23029619455337524,0.9535606503486633
1696082326596734000,4.59473388671875,-1.1746938228607178,0.182648703455925,0.9053022861480713
1696082326606734000,4.604734130859375,-1.0922271013259888,0.2736676335334778,0.8460483551025391
1696082326616734000,4.61473388671875,-0.9755517840385437,0.5143485069274902,0.7959573864936829
1696082326626734000,4.624734130859375,-0.8570439219474792,0.7257078886032104,0.7250970602035522
1696082326636734000,4.63473388671875,-0.7379252314567566,0.8759807348251343,0.6279694437980652
1696082326646734000,4.644734130859375,-0.6212499737739563,0.9847147464752197,0.5216789245605469
1696082326656734000,4.65473388671875,-0.5088507533073425,1.0109820365905762,0.40133845806121826
1696082326666734000,4.664734130859375,-0.3995058834552765,0.960280179977417,0.2626720666885376
1696082326676734000,4.67473388671875,-0.2871066629886627,0.8680394887924194,0.11545353382825851
1696082326686734000,4.684734130859375,-0.1472185254096985,0.7623597979545593,-0.033597588539123535
1696082326696734000,4.69473388671875,0.025045474991202354,0.6811147332191467,-0.17470745742321014
1696082326706734000,4.704734130859375,0.2070833146572113,0.6157521605491638,-0.3280346393585205
1696082326716734000,4.71473388671875,0.38667771220207214,0.5595525503158569,-0.4966334402561188
1696082326726733800,4.72473388671875,0.5687155723571777,0.4746423065662384,-0.66584312915802
1696082326736734000,4.73473388671875,0.7623597979545593,0.33475416898727417,-0.846659243106842
1696082326746733800,4.74473388671875,0.9450085163116455,0.21380282938480377,-1.062294602394104
1696082326756734000,4.75473388671875,1.0751228332519531,0.18997909128665924,-1.2968668937683105
1696082326766733800,4.76473388671875,1.1197160482406616,0.36529740691185,-1.4886785745620728
1696082326776734000,4.77473388671875,1.0696250200271606,0.7806857824325562,-1.5308283567428589
1696082326786733800,4.78473388671875,0.9126327037811279,1.2956452369689941,-1.387274980545044
1696082326796734000,4.79473388671875,0.6939429044723511,1.6584991216659546,-1.23394775390625
1696082326806733800,4.80473388671875,0.49846604466438293,1.6780468225479126,-1.2082914113998413
1696082326816734000,4.81473388671875,0.342695415019989,1.2021827697753906,-1.1753047704696655
1696082326826733800,4.82473388671875,0.14966198801994324,0.3029891550540924,-0.959669291973114
1696082326836734000,4.83473388671875,-0.19058994948863983,-0.5375614166259766,-0.5516113042831421
1696082326846733800,4.84473388671875,-0.5864306092262268,-0.9749409556388855,-0.04642575979232788
1696082326856734000,4.85473388671875,-0.8387179970741272,-1.0983357429504395,0.38728857040405273
1696082326866733800,4.86473388671875,-0.9077457785606384,-0.9767735004425049,0.5112941861152649
1696082326876734000,4.87473388671875,-0.8356636762619019,-0.6383541822433472,0.34086281061172485
1696082326886733800,4.88473388671875,-0.6798930168151855,-0.1771509200334549,0.00366519158706069
1696082326896734000,4.89473388671875,-0.43676865100860596,0.3732386529445648,-0.2730567753314972
1696082326906734000,4.904734130859375,-0.036651913076639175,0.7672467231750488,-0.3078760802745819
1696082326916733700,4.914733642578125,0.1661553531885147,0.7959573864936829,-0.27000242471694946
1696082326926733600,4.924733642578125,0.5009095072746277,0.49235737323760986,-0.5149593949317932
1696082326936733700,4.934733642578125,0.5595525503158569,0.33597588539123535,-0.6426302194595337
1696082326946733600,4.944733642578125,0.6065891981124878,-0.09529497474431992,-0.6878342628479004
1696082326956733700,4.954733642578125,0.44715335965156555,-0.5626068711280823,-0.503963828086853
1696082326966733600,4.964733642578125,0.13744467496871948,-1.2400563955307007,-0.3390302062034607
1696082326976733700,4.974733642578125,-0.1160643994808197,-2.3597724437713623,-0.18081611394882202
1696082326986733600,4.984733642578125,-0.22602014243602753,-2.8881709575653076,0.1014036312699318
1696082326996733700,4.994733642578125,-0.19975294172763824,-2.1233675479888916,0.50335294008255
1696082327006733600,5.004733642578125,-0.1007927656173706,-0.9841039180755615,0.720820963382721
1696082327016733700,5.014733642578125,0.2883284091949463,-0.04764748737215996,0.5149593949317932
1696082327026733800,5.02473388671875,0.49235737323760986,-0.01710422709584236,0.33169981837272644
1696082327036733700,5.034733642578125,0.8454375267028809,-0.0959058403968811,-0.13072516024112701
1696082327046733800,5.04473388671875,1.0934487581253052,-0.19425514340400696,-0.5351179838180542
1696082327056733700,5.054733642578125,1.291369080543518,-0.39706242084503174,-0.7684684991836548
1696082327066733800,5.06473388671875,1.3799445629119873,-0.5522221922874451,-0.8839219808578491
1696082327076733700,5.074733642578125,1.350012183189392,-0.5943718552589417,-1.0109820365905762
1696082327086733800,5.08473388671875,1.309084177017212,-0.5363397002220154,-1.2205088138580322
1696082327096733700,5.094733642578125,1.2980886697769165,-0.40256020426750183,-1.4953981637954712
1696082327106733800,5.10473388671875,1.3298536539077759,-0.2590068578720093,-1.7470746040344238
1696082327116733700,5.114733642578125,1.38849675655365,-0.18997909128665924,-1.9089539051055908
1696082327126733800,5.12473388671875,1.444696307182312,-0.2565633952617645,-1.9315558671951294
1696082327136733700,5.134733642578125,1.4520267248153687,-0.3854559659957886,-1.7928894758224487
1696082327146733800,5.14473388671875,1.3829989433288574,-0.4648684561252594,-1.531439185142517
1696082327156733700,5.154733642578125,1.2412781715393066,-0.4092797040939331,-1.218676209449768
1696082327166733800,5.16473388671875,1.0714576244354248,-0.18020524084568024,-0.9437867999076843
1696082327176733700,5.174733642578125,0.9071348905563354,0.1007927656173706,-0.7617489695549011
1696082327186733800,5.18473388671875,0.750142514705658,0.2981022298336029,-0.6646214127540588
1696082327196734200,5.194734130859375,0.6206390857696533,0.3494149148464203,-0.6090326309204102
1696082327206734300,5.204734375,0.5271766781806946,0.21807889640331268,-0.5748242139816284
1696082327216734700,5.214734619140625,0.45631635189056396,-0.04153883829712868,-0.5265658497810364
1696082327226734800,5.22473486328125,0.413555771112442,-0.3176499307155609,-0.44715335965156555
1696082327236734700,5.234734619140625,0.41722095012664795,-0.5931501388549805,-0.4031710624694824
1696082327246734800,5.24473486328125,0.4544837474822998,-0.8845328688621521,-0.46792277693748474
1696082327256734700,5.254734619140625,0.523511528968811,-1.0525208711624146,-0.6145304441452026
1696082327266734600,5.264734619140625,0.5900958180427551,-1.0201449394226074,-0.7666358947753906
1696082327276734700,5.274734619140625,0.6157521605491638,-0.7867944240570068,-0.8790351152420044
1696082327286734600,5.284734619140625,0.6212499737739563,-0.3781255781650543,-0.9254608750343323
1696082327296734700,5.294734619140625,0.627358615398407,-0.01771509274840355,-0.9193521738052368
1696082327306734600,5.304734619140625,0.6389650702476501,0.14233160018920898,-0.8704829812049866
1696082327316734700,5.314734619140625,0.6255260109901428,0.06658431142568588,-0.8008443117141724
1696082327326734600,5.324734619140625,0.5711590051651001,-0.1612684279680252,-0.7342600226402283
1696082327336734700,5.334734619140625,0.49846604466438293,-0.37568211555480957,-0.7031059265136719
1696082327346734600,5.344734619140625,0.45326200127601624,-0.4050036668777466,-0.7275404930114746
1696082327356734700,5.354734619140625,0.455705463886261,-0.2681698501110077,-0.8203920125961304
1696082327366734600,5.364734619140625,0.5051855444908142,-0.05925392732024193,-0.9566149711608887
1696082327376734700,5.374734619140625,0.5937610268592834,0.15515977144241333,-1.0836749076843262
1696082327386734600,5.384734619140625,0.6988298296928406,0.28099802136421204,-1.1349875926971436
1696082327396734700,5.394734619140625,0.7953465580940247,0.23335053026676178,-1.0604621171951294
1696082327406734600,5.404734619140625,0.8765916228294373,-0.00733038317412138,-0.8576548099517822
1696082327416734700,5.414734619140625,0.9169087409973145,-0.3243694305419922,-0.5436700582504272
1696082327426734600,5.424734619140625,0.901637077331543,-0.5644394755363464,-0.1814269721508026
1696082327436734700,5.434734619140625,0.8478809595108032,-0.6212499737739563,0.15454891324043274
1696082327446734600,5.444734619140625,0.7843509912490845,-0.5186246037483215,0.4086688458919525
1696082327456734700,5.454734619140625,0.7134906053543091,-0.34208452701568604,0.5283984541893005
1696082327466734600,5.464734619140625,0.6279694437980652,-0.19120082259178162,0.4960225820541382
1696082327476734700,5.474734619140625,0.5002986192703247,-0.19425514340400696,0.30604347586631775
1696082327486734600,5.484734619140625,0.2926044464111328,-0.3170390725135803,0.02932153269648552
1696082327496734200,5.494734130859375,0.015882495790719986,-0.41599923372268677,-0.17959438264369965
1696082327506734300,5.504734375,-0.26511552929878235,-0.38179078698158264,-0.16004669666290283
1696082327516734200,5.514734130859375,-0.5222898125648499,-0.16798794269561768,0.12034045159816742
1696082327526734300,5.524734375,-0.750142514705658,0.12828169763088226,0.5607742667198181
1696082327536734200,5.534734130859375,-0.9199630618095398,0.3793473243713379,1.0152580738067627
1696082327546734300,5.544734375,-1.0122036933898926,0.6053674817085266,1.423926830291748
1696082327556734200,5.554734130859375,-1.0403034687042236,0.8729264140129089,1.7678439617156982
1696082327566734300,5.564734375,-1.1099421977996826,1.224173903465271,2.0323486328125
1696082327576734200,5.574734130859375,-1.3371840715408325,1.5522085428237915,2.2424862384796143
1696082327586734300,5.584734375,-1.7018705606460571,1.718363881111145,2.4165828227996826
1696082327596734200,5.594734130859375,-2.1001546382904053,1.6139060258865356,2.5338690280914307
1696082327606734300,5.604734375,-2.4165828227996826,1.0958921909332275,2.629774808883667
1696082327616734200,5.614734130859375,-2.5589144229888916,0.1270599663257599,2.7769935131073
1696082327626734300,5.624734375,-2.540588617324829,-1.0971139669418335,2.9382617473602295
1696082327636734200,5.634734130859375,-2.4104743003845215,-2.155743360519409,2.9523117542266846
1696082327646734300,5.644734375,-2.2430970668792725,-2.744006633758545,2.676811456680298
1696082327656734200,5.654734130859375,-2.001805305480957,-2.652376890182495,2.141082763671875
1696082327666734300,5.664734375,-1.6505578756332397,-2.2003366947174072,1.5460999011993408
1696082327676734200,5.674734130859375,-1.302364706993103,-1.7330247163772583,1.1423180103302002
1696082327686734300,5.684734375,-1.1117748022079468,-1.017701506614685,0.921184778213501
1696082327696734200,5.694734130859375,-1.083064079284668,-0.16737708449363708,0.8753699064254761
1696082327706734300,5.704734375,-1.1313223838806152,0.5558874011039734,1.0641272068023682
1696082327716734200,5.714734130859375,-1.1545352935791016,0.9126327037811279,1.2956452369689941
1696082327726734300,5.724734375,-1.1331549882888794,1.0293079614639282,1.3817771673202515
1696082327736734200,5.734734130859375,-1.1117748022079468,0.9950994849205017,1.3005321025848389
1696082327746734300,5.744734375,-1.1215485334396362,0.8857545852661133,1.1282681226730347
1696082327756734200,5.754734130859375,-1.1655309200286865,0.7544185519218445,0.9676105380058289
1696082327766734000,5.764734130859375,-1.2137892246246338,0.626747727394104,0.8955284357070923
1696082327776734200,5.774734130859375,-1.2479976415634155,0.4856378734111786,0.9156870245933533
1696082327786734000,5.784734130859375,-1.2626584768295288,0.3396410644054413,0.9761626720428467
1696082327796734200,5.794734130859375,-1.2504411935806274,0.24434609711170197,1.006095051765442
1696082327806734000,5.804734130859375,-1.197295904159546,0.2669481039047241,0.9633345007896423
1696082327816734200,5.814734130859375,-1.1056660413742065,0.3927863538265228,0.8411614298820496
1696082327826734000,5.824734130859375,-0.9950994849205017,0.5619960427284241,0.6823364496231079
1696082327836734200,5.834734130859375,-0.8790351152420044,0.7422012686729431,0.5229006409645081
1696082327846734000,5.844734130859375,-0.7464773058891296,0.9340129494667053,0.40072759985923767
1696082327856734200,5.854734130859375,-0.5833762884140015,1.0855075120925903,0.3341432809829712
1696082327866734000,5.864734130859375,-0.40133845806121826,1.1252137422561646,0.28955012559890747
1696082327876734200,5.874734130859375,-0.21868975460529327,1.0464121103286743,0.21563543379306793
1696082327886734000,5.884734130859375,-0.05253441259264946,0.8936958312988281,0.0959058403968811
1696082327896734200,5.894734130859375,0.09346238523721695,0.7153232097625732,-0.07147123664617538
1696082327906734000,5.904734130859375,0.23151792585849762,0.5723807215690613,-0.27488934993743896
1696082327916734200,5.914734130859375,0.3677408695220947,0.4703662395477295,-0.49296826124191284
1696082327926734000,5.924734130859375,0.5210680365562439,0.3646865487098694,-0.6994407176971436
1696082327936734200,5.934734130859375,0.7049384713172913,0.21807889640331268,-0.8936958312988281
1696082327946734000,5.944734130859375,0.911410927772522,0.039706241339445114,-1.1032226085662842
1696082327956734200,5.954734130859375,1.0946705341339111,-0.07147123664617538,-1.3506230115890503
1696082327966734300,5.964734375,1.1936306953430176,0.004886921960860491,-1.6371188163757324
1696082327976734200,5.974734130859375,1.2101240158081055,0.32131510972976685,-1.855197787284851
1696082327986734300,5.984734375,1.1423180103302002,0.8869763612747192,-1.8588629961013794
1696082327996734200,5.994734130859375,1.0030407905578613,1.5619823932647705,-1.6175711154937744
1696082328006734300,6.004734375,0.8491026759147644,2.0421226024627686,-1.3408491611480713
1696082328016734200,6.014734130859375,0.7409795522689819,2.0054705142974854,-1.2198978662490845
1696082328026734300,6.024734375,0.5919284224510193,1.490511178970337,-1.0122036933898926
1696082328036734200,6.034734130859375,0.1661553531885147,0.959669291973114,-0.5076290369033813
1696082328046734300,6.044734375,-0.4954117238521576,0.7819074988365173,0.08674286305904388
1696082328056734200,6.054734130859375,-0.9541715383529663,0.5864306092262268,0.5552765130996704
1696082328066734300,6.064734375,-1.0421360731124878,0.05497787147760391,0.750142514705658
1696082328076734200,6.074734130859375,-0.9346238374710083,-0.5277875661849976,0.5705481171607971
1696082328086733300,6.0847333984375,-0.7721336483955383,-1.0097602605819702,0.1618792861700058
1696082328096733400,6.0947333984375,-0.5821545720100403,-1.463022232055664,-0.25045475363731384
1696082328106733300,6.1047333984375,-0.4190535545349121,-1.8741345405578613,-0.4709770977497101
1696082328116733400,6.1147333984375,-0.2583959996700287,-2.1343631744384766,-0.6114761233329773
1696082328126733300,6.1247333984375,-0.006108652334660292,-1.8955148458480835,-0.6475171446800232
1696082328136733400,6.1347333984375,0.2736676335334778,-0.7751879692077637,-0.24068090319633484
1696082328146733300,6.1447333984375,0.40256020426750183,0.7165449261665344,0.44654250144958496
1696082328156733400,6.1547333984375,0.5497786998748779,1.4495831727981567,0.7128797173500061
1696082328166733300,6.1647333984375,0.6841690540313721,1.2315043210983276,0.6627888083457947
1696082328176733400,6.1747333984375,0.7733554244041443,0.9028588533401489,0.3799581825733185
1696082328186733300,6.1847333984375,0.8326093554496765,0.5705481171607971,-0.009162978269159794
1696082328196733400,6.1947333984375,0.7849618196487427,0.22357667982578278,-0.28038713335990906
1696082328206733300,6.2047333984375,0.6346889734268188,-0.0012217304902151227,-0.2828305959701538
1696082328216733400,6.2147333984375,0.5277875661849976,-0.34574973583221436,-0.19914206862449646
1696082328226733300,6.2247333984375,0.4996877610683441,-0.8698720932006836,-0.24190263450145721
1696082328236733400,6.2347333984375,0.503963828086853,-1.4184291362762451,-0.5180137157440186
1696082328246733300,6.2447333984375,0.5204572081565857,-1.82404363155365,-0.9437867999076843
1696082328256733400,6.2547333984375,0.5925393104553223,-1.9889771938323975,-1.3280210494995117
1696082328266733300,6.2647333984375,0.7440338730812073,-1.8661932945251465,-1.5735888481140137
1696082328276733200,6.274733154296875,0.9358455538749695,-1.5534303188323975,-1.718363881111145
1696082328286733300,6.2847333984375,1.0879509449005127,-1.2510520219802856,-1.8283196687698364
1696082328296733200,6.294733154296875,1.1527026891708374,-1.0409144163131714,-1.874745488166809
1696082328306733300,6.3047333984375,1.131933331489563,-0.8332201838493347,-1.7611244916915894
1696082328316733200,6.314733154296875,1.0641272068023682,-0.5143485069274902,-1.4776830673217773
1696082328326733300,6.3247333984375,1.0012081861495972,-0.1062905490398407,-1.1264355182647705
1696082328336733200,6.334733154296875,0.9657779335975647,0.2840523421764374,-0.837496280670166
1696082328346733300,6.3447333984375,0.9584475755691528,0.5943718552589417,-0.6927211880683899
1696082328356733200,6.354733154296875,0.9621127843856812,0.808174729347229,-0.6866125464439392
1696082328366733300,6.3647333984375,0.9584475755691528,0.9132435321807861,-0.759305477142334
1696082328376733200,6.374733154296875,0.9346238374710083,0.8582656979560852,-0.8552113175392151
1696082328386734000,6.384734130859375,0.9028588533401489,0.7715228199958801,-0.9175195693969727
1696082328396734200,6.394734130859375,0.8827002644538879,0.5894849896430969,-0.93095862865448
1696082328406734000,6.404734130859375,0.8246681094169617,0.29565876722335815,-0.8845328688621521
1696082328416734200,6.414734130859375,0.7397578358650208,-0.01710422709584236,-0.8002334833145142
1696082328426734000,6.424734130859375,0.6603453159332275,-0.2828305959701538,-0.7122688889503479
1696082328436734200,6.434734130859375,0.6065891981124878,-0.5002986192703247,-0.6707300543785095
1696082328446734000,6.444734130859375,0.5687155723571777,-0.7220427393913269,-0.6969972252845764
1696082328456734200,6.454734130859375,0.5497786998748779,-0.9095783233642578,-0.7812966704368591
1696082328466734300,6.464734375,0.543059229850769,-1.0195341110229492,-0.8869763612747192
1696082328476734200,6.474734130859375,0.5363397002220154,-0.960280179977417,-0.9364564418792725
1696082328486734300,6.484734375,0.5357288122177124,-0.79840087890625,-0.9248499870300293
1696082328496734200,6.494734130859375,0.5613851547241211,-0.5998696684837341,-0.8558222055435181
1696082328506734300,6.504734375,0.598647952079773,-0.43799036741256714,-0.7299839854240417
1696082328516734200,6.514734130859375,0.6059783101081848,-0.375071257352829,-0.5943718552589417
1696082328526734000,6.524734130859375,0.5919284224510193,-0.423329621553421,-0.5247332453727722
1696082328536734200,6.534734130859375,0.5943718552589417,-0.48197266459465027,-0.5345070958137512
1696082328546734000,6.544734130859375,0.6261368989944458,-0.4508185386657715,-0.5992587804794312
1696082328556734200,6.554734130859375,0.6615670323371887,-0.33475416898727417,-0.6908885836601257
1696082328566734000,6.564734130859375,0.7086036801338196,-0.20586158335208893,-0.7550294399261475
1696082328576734200,6.574734130859375,0.7904596328735352,-0.12767083942890167,-0.7629706859588623
1696082328586734000,6.584734130859375,0.8875871896743774,-0.14844025671482086,-0.7195992469787598
1696082328596734200,6.594734130859375,0.9663888216018677,-0.2174680233001709,-0.646295428276062
1696082328606734000,6.604734130859375,0.9847147464752197,-0.29016098380088806,-0.5387831330299377
1696082328616734200,6.614734130859375,0.9388998746871948,-0.34758231043815613,-0.3952298164367676
1696082328626734000,6.624734130859375,0.8503243923187256,-0.39217549562454224,-0.2376265823841095
1696082328636734200,6.634734130859375,0.7373143434524536,-0.3982841372489929,-0.09957103431224823
1696082328646734000,6.644734130859375,0.607200026512146,-0.3781255781650543,-0.005497787147760391
1696082328656734200,6.654734130859375,0.47830748558044434,-0.34513887763023376,0.02626720629632473
1696082328666734000,6.664734130859375,0.35674530267715454,-0.32681289315223694,0.001832595793530345
1696082328676734200,6.674734130859375,0.2431243658065796,-0.39217549562454224,-0.06841690838336945
1696082328686734000,6.684734130859375,0.12095131725072861,-0.5369505286216736,-0.13927727937698364
1696082328696734200,6.694734130859375,-0.014049900695681572,-0.6597344875335693,-0.13439035415649414
1696082328706734000,6.704734130859375,-0.15332718193531036,-0.626747727394104,0.012217304669320583
1696082328716734200,6.714734130859375,-0.2932153046131134,-0.40683624148368835,0.31031954288482666
1696082328726734000,6.724734130859375,-0.42699480056762695,-0.06291911751031876,0.6872233748435974
1696082328736734200,6.734734130859375,-0.5711590051651001,0.2736676335334778,1.0409144163131714
1696082328746734000,6.744734130859375,-0.7147123217582703,0.46547931432724,1.3041973114013672
1696082328756734200,6.754734130859375,-0.8472700715065002,0.5406157374382019,1.4691308736801147
1696082328766734000,6.764734130859375,-1.024420976638794,0.6811147332191467,1.6139060258865356
1696082328776734200,6.774734130859375,-1.2724323272705078,0.988379955291748,1.8362609148025513
1696082328786734000,6.784734130859375,-1.6475036144256592,1.2858713865280151,2.105041742324829
1696082328796734200,6.794734130859375,-2.1038198471069336,1.4929546117782593,2.2907447814941406
1696082328806734000,6.804734130859375,-2.487443208694458,1.4489723443984985,2.3524420261383057
1696082328816734200,6.814734130859375,-2.701857089996338,1.0299187898635864,2.347555160522461
1696082328826734000,6.824734130859375,-2.6792550086975098,0.2571742534637451,2.420858860015869
1696082328836734200,6.834734130859375,-2.4434609413146973,-0.5772676467895508,2.582127332687378
1696082328846734000,6.844734130859375,-2.1197023391723633,-1.2638801336288452,2.6841418743133545
1696082328856734200,6.854734130859375,-1.8380935192108154,-1.7941112518310547,2.568077564239502
1696082328866734000,6.864734130859375,-1.6255123615264893,-1.9755382537841797,2.1178698539733887
1696082328876734200,6.874734130859375,-1.4300355911254883,-1.9144517183303833,1.5375478267669678
1696082328886734000,6.884734130859375,-1.3292428255081177,-1.5497651100158691,1.0195341110229492
1696082328896734200,6.894734130859375,-1.2962560653686523,-1.0555751323699951,0.7568620443344116
1696082328906734000,6.904734130859375,-1.3243558406829834,-0.6041457056999207,0.7660250067710876
1696082328916734200,6.914734130859375,-1.3842206001281738,-0.06108652427792549,0.8625417351722717
1696082328926734000,6.924734130859375,-1.4563027620315552,0.5149593949317932,0.9474520087242126
1696082328936734200,6.934734130859375,-1.4789047241210938,0.9584475755691528,1.0005972385406494
1696082328946734000,6.944734130859375,-1.4624114036560059,1.1386528015136719,1.0323622226715088
1696082328956734200,6.954734130859375,-1.4117095470428467,1.0464121103286743,1.0409144163131714
1696082328966734300,6.964734375,-1.3329079151153564,0.8112290501594543,1.0396926403045654
1696082328976734200,6.974734130859375,-1.2473868131637573,0.5106833577156067,1.034194827079773
1696082328986734300,6.984734375,-1.176526427268982,0.2675589919090271,1.0073168277740479
1696082328996734200,6.994734130859375,-1.1142182350158691,0.1417207419872284,0.9608910083770752
1696082329006734300,7.004734375,-1.0586295127868652,0.10995574295520782,0.9242390990257263
1696082329016734200,7.014734130859375,-0.9828822016716003,0.16982053220272064,0.8961393237113953
1696082329026734300,7.024734375,-0.8808676600456238,0.30054569244384766,0.8448266386985779
1696082329036734200,7.034734130859375,-0.7434229850769043,0.4495968222618103,0.7464773058891296
1696082329046734300,7.044734375,-0.5864306092262268,0.5711590051651001,0.6212499737739563
1696082329056734200,7.054734130859375,-0.4404338300228119,0.675006091594696,0.4990769028663635
1696082329066734300,7.064734375,-0.3139847218990326,0.7531968355178833,0.39706242084503174
1696082329076734200,7.074734130859375,-0.2076941877603531,0.7250970602035522,0.294437050819397
1696082329086734300,7.084734375,-0.13072516024112701,0.5687155723571777,0.17776179313659668
1696082329096734200,7.094734130859375,-0.07208210229873657,0.40133845806121826,0.04764748737215996
1696082329106734300,7.104734375,0.01160643994808197,0.303600013256073,-0.10018189996480942
1696082329116734200,7.114734130859375,0.13744467496871948,0.2926044464111328,-0.26572638750076294
1696082329126734300,7.124734375,0.2919935882091522,0.32498031854629517,-0.43799036741256714
1696082329136734200,7.134734130859375,0.48197266459465027,0.34147366881370544,-0.6065891981124878
1696082329146734300,7.144734375,0.6994407176971436,0.3384193480014801,-0.7800748944282532
1696082329156734200,7.154734130859375,0.9156870245933533,0.32009339332580566,-0.9865473508834839
1696082329166734300,7.164734375,1.0702359676361084,0.32070425152778625,-1.2150110006332397
1696082329176734200,7.174734130859375,1.0977247953414917,0.4703662395477295,-1.3726142644882202
1696082329186734300,7.184734375,0.988379955291748,0.8313875794410706,-1.3756685256958008
1696082329196734200,7.194734130859375,0.7165449261665344,1.3329079151153564,-1.2754865884780884
1696082329206734300,7.204734375,0.3530801236629486,1.824654459953308,-1.2870930433273315
1696082329216734200,7.214734130859375,0.06414084881544113,1.9156733751296997,-1.3494013547897339
1696082329226734300,7.224734375,-0.08735372871160507,1.3585642576217651,-1.205847978591919
1696082329236734200,7.234734130859375,-0.2681698501110077,0.4251621961593628,-0.7232644557952881
1696082329246734300,7.244734375,-0.6212499737739563,-0.3543018400669098,-0.09162978827953339
1696082329256734200,7.254734130859375,-1.036027431488037,-0.6921103000640869,0.39217549562454224
1696082329266734000,7.264734130859375,-1.2290608882904053,-0.7134906053543091,0.42699480056762695
1696082329276734200,7.274734130859375,-1.1087204217910767,-0.7171558141708374,0.11362093687057495
1696082329286734000,7.284734130859375,-0.7861835956573486,-0.7458664774894714,-0.25106561183929443
1696082329296734200,7.294734130859375,-0.3176499307155609,-0.8148942589759827,-0.3995058834552765
1696082329306734000,7.304734130859375,0.10812314599752426,-1.0036516189575195,-0.252287358045578
1696082329316734200,7.314734130859375,0.2742784917354584,-1.235169529914856,-0.10873401165008545
1696082329326734000,7.324734130859375,0.31031954288482666,-1.5906931161880493,-0.17959438264369965
1696082329336734200,7.334734130859375,0.4184426963329315,-1.76723313331604,-0.14355333149433136
1696082329346734000,7.344734130859375,0.6450737118721008,-1.2767083644866943,0.042760565876960754
1696082329356734200,7.354734130859375,0.8301658630371094,-0.5002986192703247,0.10445795953273773
1696082329366734000,7.364734130859375,1.054964303970337,-0.3127630054950714,0.2871066629886627
1696082329376734200,7.374734130859375,1.2736539840698242,-0.9395107626914978,0.5265658497810364
1696082329386734000,7.384734130859375,1.3408491611480713,-1.2877039909362793,0.7721336483955383
1696082329396734000,7.39473388671875,1.2962560653686523,-0.7947356700897217,0.949895441532135
1696082329406733800,7.40473388671875,1.2589932680130005,-0.1362229436635971,0.9162978529930115
1696082329416734000,7.41473388671875,1.246165156364441,0.3274237811565399,0.6255260109901428
1696082329426733800,7.42473388671875,1.2705997228622437,0.6585127115249634,0.17104226350784302
1696082329436734000,7.43473388671875,1.2834278345108032,0.9896016716957092,-0.38606682419776917
1696082329446733800,7.44473388671875,1.2773191928863525,1.253495454788208,-0.8839219808578491
1696082329456734000,7.45473388671875,1.2699888944625854,1.4019356966018677,-1.151481032371521
1696082329466734000,7.464734130859375,1.2602150440216064,1.2822061777114868,-1.2424999475479126
1696082329476734000,7.47473388671875,1.2571606636047363,0.6627888083457947,-1.4685200452804565
1696082329486734000,7.484734130859375,1.215621829032898,-0.29993483424186707,-1.8558086156845093
1696082329496734000,7.49473388671875,1.111163854598999,-1.0506882667541504,-2.1368067264556885
1696082329506734000,7.504734130859375,0.9731083512306213,-1.4660766124725342,-2.235766887664795
1696082329516734000,7.51473388671875,0.8539896011352539,-1.7318029403686523,-2.2180516719818115
1696082329526733800,7.52473388671875,0.7721336483955383,-2.0005836486816406,-2.1203131675720215
1696082329536734000,7.53473388671875,0.6957755088806152,-2.2186625003814697,-1.948660135269165
1696082329546877700,7.544877685546875,0.616973876953125,-2.255314588546753,-1.690264105796814
1696082329556877300,7.554877197265625,0.5583308339118958,-1.947438359260559,-1.3744467496871948
1696082329566877200,7.564877197265625,0.5619960427284241,-1.2773191928863525,-1.0586295127868652
1696082329576877300,7.574877197265625,0.6505714654922485,-0.36651915311813354,-0.816726803779602
1696082329586877200,7.584877197265625,0.7678576111793518,0.45142942667007446,-0.6890559792518616
1696082329596877300,7.594877197265625,0.8827002644538879,1.0726794004440308,-0.626747727394104
1696082329606877200,7.604877197265625,0.9425650835037231,1.361007809638977,-0.5870414972305298
1696082329616877300,7.614877197265625,0.9187413454055786,1.3249666690826416,-0.5375614166259766
1696082329626877200,7.624877197265625,0.8765916228294373,1.1233811378479004,-0.46303585171699524
1696082329636877300,7.634877197265625,0.8576548099517822,0.6939429044723511,-0.4056145250797272
1696082329646877200,7.644877197265625,0.807563841342926,0.06658431142568588,-0.42271876335144043
1696082329656877300,7.654877197265625,0.7360926270484924,-0.578489363193512,-0.607200026512146
1696082329666877200,7.664877197265625,0.7086036801338196,-1.1844676733016968,-0.9450085163116455
1696082329676877300,7.674877197265625,0.6878342628479004,-1.6420058012008667,-1.253495454788208
1696082329686877200,7.684877197265625,0.6493497490882874,-1.8387043476104736,-1.378722906112671
1696082329696877600,7.694877685546875,0.6340781450271606,-1.643227458000183,-1.2198978662490845
1696082329706877400,7.70487744140625,0.6499606370925903,-1.1239920854568481,-0.7751879692077637
1696082329716877600,7.714877685546875,0.6145304441452026,-0.5797111392021179,-0.26939156651496887
1696082329726877400,7.72487744140625,0.5119050741195679,-0.2675589919090271,0
1696082329736877600,7.734877685546875,0.41599923372268677,-0.1411098688840866,-0.03848451003432274
1696082329746877400,7.74487744140625,0.3640756905078888,-0.09529497474431992,-0.3188716471195221
1696082329756877000,7.754876953125,0.3793473243713379,-0.02626720629632473,-0.6603453159332275
1696082329766877200,7.764877197265625,0.45142942667007446,0.13316862285137177,-0.8863654732704163
1696082329776877000,7.774876953125,0.5564982295036316,0.3090978264808655,-0.9358455538749695
1696082329786877200,7.784877197265625,0.6701191663742065,0.38606682419776917,-0.827111542224884
1696082329796877000,7.794876953125,0.7440338730812073,0.2565633952617645,-0.6096435189247131
1696082329806877200,7.804877197265625,0.7324274182319641,-0.08124507963657379,-0.35613444447517395
1696082329816877000,7.814876953125,0.6878342628479004,-0.4862487316131592,-0.11484266817569733
1696082329826877200,7.824877197265625,0.6737843751907349,-0.7538077235221863,0.10567969083786011
1696082329836877000,7.834876953125,0.6786713004112244,-0.7660250067710876,0.2987131178379059
1696082329846877200,7.844877197265625,0.6872233748435974,-0.5815436840057373,0.42699480056762695
1696082329856877300,7.854877197265625,0.6792821288108826,-0.3683517575263977,0.43676865100860596
1696082329866877400,7.86487744140625,0.6139195561408997,-0.30482175946235657,0.2981022298336029
1696082329876877300,7.874877197265625,0.4440990388393402,-0.38240164518356323,0.07880161702632904
1696082329886877400,7.88487744140625,0.1869247704744339,-0.47342056035995483,-0.07452555745840073
1696082329896877300,7.894877197265625,-0.1215621829032898,-0.40683624148368835,-0.010995574295520782
1696082329906877400,7.90487744140625,-0.4599815309047699,-0.19120082259178162,0.28588494658470154
1696082329916877300,7.914877197265625,-0.7476990818977356,-0.048258353024721146,0.6988298296928406
1696082329926877400,7.92487744140625,-0.931569516658783,-0.04214970022439957,1.094059705734253
1696082329936877300,7.934877197265625,-1.037249207496643,0.021991148591041565,1.4776830673217773
1696082329946877400,7.94487744140625,-1.1582005023956299,0.37751471996307373,1.9101755619049072
1696082329956877600,7.954877685546875,-1.3628404140472412,1.1527026891708374,2.3267858028411865
1696082329966877400,7.96487744140625,-1.7348573207855225,1.8484781980514526,2.559525489807129
1696082329976877600,7.974877685546875,-2.1710150241851807,2.1655173301696777,2.5674667358398438
1696082329986877400,7.98487744140625,-2.5466971397399902,2.0561723709106445,2.409252643585205
1696082329996877600,7.994877685546875,-2.7794368267059326,1.5735888481140137,2.2070560455322266
1696082330006877400,8.00487744140625,-2.819753885269165,0.9822713136672974,2.140471935272217
1696082330016877600,8.014877685546875,-2.635272741317749,0.43615779280662537,2.3212878704071045
1696082330026877400,8.02487744140625,-2.344500780105591,-0.11301007121801376,2.582127332687378
1696082330036877600,8.034877685546874,-2.0470094680786133,-0.6640105247497559,2.6426031589508057
1696082330046877400,8.04487744140625,-1.855197787284851,-1.3622294664382935,2.3243422508239746
1696082330056877800,8.0548779296875,-1.703092336654663,-1.8777997493743896,1.6676621437072754
1696082330066878000,8.0648779296875,-1.5357152223587036,-2.172236919403076,0.9633345007896423
1696082330076877800,8.0748779296875,-1.4001030921936035,-2.2846360206604004,0.5717698931694031
1696082330086878000,8.0848779296875,-1.3738359212875366,-1.9065104722976685,0.5998696684837341
1696082330096877800,8.0948779296875,-1.4593570232391357,-1.0183123350143433,0.8124507665634155
1696082330106878000,8.1048779296875,-1.5320500135421753,0.1258382350206375,0.9938777685165405
1696082330116877800,8.1148779296875,-1.4953981637954712,1.0280861854553223,1.1001683473587036
1696082330126878000,8.1248779296875,-1.3524556159973145,1.4563027620315552,1.120937705039978
1696082330136877800,8.1348779296875,-1.1899654865264893,1.4440854787826538,1.0739010572433472
1696082330146878000,8.1448779296875,-1.0684033632278442,1.064738154411316,1.0067058801651
1696082330156877800,8.1548779296875,-1.0012081861495972,0.5552765130996704,0.9156870245933533
1696082330166878000,8.1648779296875,-1.0036516189575195,0.10262536257505417,0.8032878041267395
1696082330176877800,8.1748779296875,-1.056796908378601,-0.13927727937698364,0.6817256212234497
1696082330186878000,8.1848779296875,-1.1136072874069214,-0.14416420459747314,0.5766568183898926
1696082330196877800,8.1948779296875,-1.1380419731140137,-0.007941247895359993,0.513126790523529
1696082330206878000,8.2048779296875,-1.1001683473587036,0.2223549485206604,0.485027015209198
1696082330216877800,8.2148779296875,-0.9957103729248047,0.5015203952789307,0.455705463886261
1696082330226878000,8.2248779296875,-0.8387179970741272,0.8197811841964722,0.42149701714515686
1696082330236877800,8.2348779296875,-0.6524040699005127,1.007927656173706,0.36224308609962463
1696082330246878000,8.2448779296875,-0.48747047781944275,1.0604621171951294,0.2632829248905182
1696082330256877800,8.2548779296875,-0.35552358627319336,1.074512004852295,0.14355333149433136
1696082330266878000,8.2648779296875,-0.23579397797584534,1.047023057937622,0.02626720629632473
1696082330276877800,8.2748779296875,-0.10873401165008545,0.9902125597000122,-0.09712757170200348
1696082330286878000,8.2848779296875,0.02687807008624077,0.949895441532135,-0.2431243658065796
1696082330296877800,8.2948779296875,0.17470745742321014,0.9388998746871948,-0.41233405470848083
1696082330306878000,8.3048779296875,0.33536502718925476,0.9450085163116455,-0.6102544069290161
1696082330316877800,8.3148779296875,0.5216789245605469,0.8747590184211731,-0.8289441466331482
1696082330326878000,8.3248779296875,0.7440338730812073,0.7275404930114746,-1.0604621171951294
1696082330336877800,8.3348779296875,0.9584475755691528,0.627358615398407,-1.3029755353927612
1696082330346878000,8.3448779296875,1.1129964590072632,0.6597344875335693,-1.547932505607605
1696082330356877800,8.3548779296875,1.1734721660614014,0.8845328688621521,-1.7599027156829834
1696082330366878000,8.3648779296875,1.0977247953414917,1.253495454788208,-1.7678439617156982
1696082330376877800,8.3748779296875,0.8356636762619019,1.6200146675109863,-1.5076154470443726
1696082330386878000,8.3848779296875,0.5119050741195679,1.6890424489974976,-1.3390166759490967
1696082330396877800,8.3948779296875,0.27000242471694946,1.3353514671325684,-1.3390166759490967
1696082330406878000,8.4048779296875,0.09773843735456467,0.5699372887611389,-1.236391305923462
1696082330416877800,8.4148779296875,-0.08918632566928864,-0.45265114307403564,-0.769079327583313
1696082330426878000,8.4248779296875,-0.42149701714515686,-1.3194689750671387,-0.06536258012056351
1696082330436877800,8.4348779296875,-0.7312057018280029,-1.7818939685821533,0.41661009192466736
1696082330446878000,8.4448779296875,-0.8411614298820496,-1.9382754564285278,0.46792277693748474
1696082330456877800,8.4548779296875,-0.7825183868408203,-1.8863518238067627,0.23640485107898712
1696082330466878000,8.4648779296875,-0.694553792476654,-1.8081611394882202,0.05925392732024193
1696082330476877800,8.4748779296875,-0.41722095012664795,-1.50211763381958,-0.30543261766433716
1696082330486878000,8.4848779296875,-0.08735372871160507,-1.086118459701538,-0.4386012554168701
1696082330496877800,8.4948779296875,0.05925392732024193,-0.8546004891395569,-0.4056145250797272
1696082330506878000,8.5048779296875,0.08307767659425735,-0.5638286471366882,-0.29565876722335815
1696082330516877800,8.5148779296875,0.16798794269561768,-0.045204028487205505,0.10995574295520782
1696082330526878000,8.5248779296875,0.2675589919090271,0.28527405858039856,0.5467243790626526
1696082330536877800,8.5348779296875,0.33597588539123535,0.21930062770843506,0.626747727394104
1696082330546878000,8.5448779296875,0.39767327904701233,-0.26633724570274353,0.5057964324951172
1696082330556877800,8.5548779296875,0.3488040566444397,-0.7373143434524536,0.4294382631778717
1696082330566878000,8.5648779296875,0.23090706765651703,-0.7464773058891296,0.40744712948799133
1696082330576877800,8.5748779296875,0.12278391420841217,-0.4489859640598297,0.42638394236564636
1696082330586878000,8.5848779296875,0.12828169763088226,-0.23273965716362,0.5057964324951172
1696082330596877800,8.5948779296875,0.3396410644054413,-0.3604104816913605,0.49235737323760986
1696082330606878000,8.6048779296875,0.616973876953125,-0.6511823534965515,0.2480112910270691
1696082330616877800,8.6148779296875,0.8710938692092896,-0.9144652485847473,-0.1771509200334549
1696082330626878000,8.6248779296875,1.0696250200271606,-1.007927656173706,-0.6029239892959595
1696082330636877800,8.6348779296875,1.1575896739959717,-0.8515461683273315,-0.8619308471679688
1696082330646878000,8.6448779296875,1.1808024644851685,-0.4495968222618103,-1.0433578491210938
1696082330656877800,8.6548779296875,1.2541064023971558,0.03420845419168472,-1.2510520219802856
1696082330666878000,8.6648779296875,1.361007809638977,0.4392121136188507,-1.4795156717300415
1696082330676877800,8.6748779296875,1.4618005752563477,0.6407976150512695,-1.7427985668182373
1696082330686878000,8.6848779296875,1.521665334701538,0.6035348773002625,-1.9798142910003662
1696082330696877800,8.6948779296875,1.5302174091339111,0.37690386176109314,-2.0971004962921143
1696082330706878000,8.7048779296875,1.482569932937622,0.016493361443281174,-2.0396790504455566
1696082330716877800,8.7148779296875,1.3768903017044067,-0.39156460762023926,-1.8099937438964844
1696082330726878000,8.7248779296875,1.2308934926986694,-0.7153232097625732,-1.483791708946228
1696082330736877800,8.7348779296875,1.084285855293274,-0.8943067193031311,-1.1679743528366089
1696082330746878000,8.7448779296875,0.9297369122505188,-0.8912523984909058,-0.9352346658706665
1696082330756877800,8.7548779296875,0.769690215587616,-0.6939429044723511,-0.8069530129432678
1696082330766878000,8.7648779296875,0.66584312915802,-0.3805690407752991,-0.7324274182319641
1696082330776877800,8.7748779296875,0.6023131608963013,-0.09896016865968704,-0.6511823534965515
1696082330786878000,8.7848779296875,0.5503895878791809,0.018936822190880775,-0.5516113042831421
1696082330796877800,8.7948779296875,0.5186246037483215,-0.005497787147760391,-0.4294382631778717
1696082330806878000,8.8048779296875,0.5100724697113037,-0.16432274878025055,-0.3072652220726013
1696082330816877800,8.8148779296875,0.5558874011039734,-0.30970868468284607,-0.2076941877603531
1696082330826878000,8.8248779296875,0.6163630485534668,-0.39645153284072876,-0.19303341209888458
1696082330836877800,8.8348779296875,0.6786713004112244,-0.5852088928222656,-0.3280346393585205
1696082330846878000,8.8448779296875,0.7379252314567566,-0.8338310718536377,-0.6004805564880371
1696082330856877800,8.8548779296875,0.769690215587616,-0.9645562171936035,-0.8888089060783386
1696082330866878000,8.8648779296875,0.8014551997184753,-0.8600982427597046,-1.0641272068023682
1696082330876877800,8.8748779296875,0.8576548099517822,-0.626747727394104,-1.0885618925094604
1696082330886878000,8.8848779296875,0.9224064946174622,-0.35552358627319336,-0.9871582388877869
1696082330896877800,8.8948779296875,0.9541715383529663,-0.14416420459747314,-0.7959573864936829
1696082330906878000,8.9048779296875,0.9156870245933533,-0.0757472887635231,-0.6328563690185547
1696082330916877800,8.9148779296875,0.8362745046615601,-0.11056660860776901,-0.6279694437980652
1696082330926878000,8.9248779296875,0.769690215587616,-0.18509216606616974,-0.816726803779602
1696082330936877800,8.9348779296875,0.7141014933586121,-0.2125810980796814,-1.0586295127868652
1696082330946878000,8.9448779296875,0.7012733221054077,-0.14355333149433136,-1.13926362991333
1696082330956877800,8.9548779296875,0.7122688889503479,-0.005497787147760391,-0.9871582388877869
1696082330966878000,8.9648779296875,0.7397578358650208,0.09162978827953339,-0.656680166721344
1696082330976877800,8.9748779296875,0.7648032903671265,0.07269296050071716,-0.28649580478668213
1696082330986878000,8.9848779296875,0.7562511563301086,-0.0354301854968071,0.009773843921720982
1696082330996877800,8.9948779296875,0.7165449261665344,-0.2015855312347412,0.18936823308467865
1696082331006878000,9.0048779296875,0.6823364496231079,-0.36713001132011414,0.2840523421764374
1696082331016877800,9.0148779296875,0.6627888083457947,-0.44226643443107605,0.32498031854629517
1696082331026878000,9.0248779296875,0.6426302194595337,-0.40194934606552124,0.33169981837272644
1696082331036877800,9.0348779296875,0.6059783101081848,-0.32986724376678467,0.28466320037841797
1696082331046878000,9.0448779296875,0.5326744914054871,-0.3597996234893799,0.13988813757896423
1696082331056877800,9.0548779296875,0.3897320330142975,-0.5015203952789307,-0.07024950534105301
1696082331066878000,9.0648779296875,0.18997909128665924,-0.6310238242149353,-0.19792033731937408
1696082331076877800,9.0748779296875,-0.02076941914856434,-0.6383541822433472,-0.10995574295520782
1696082331086878000,9.0848779296875,-0.23396138846874237,-0.48380526900291443,0.20952677726745605
1696082331096877800,9.0948779296875,-0.4508185386657715,-0.24678955972194672,0.646906316280365
1696082331106878000,9.1048779296875,-0.6236934065818787,-0.06414084881544113,1.0629055500030518
1696082331116877800,9.1148779296875,-0.7147123217582703,0.06719517707824707,1.4300355911254883
1696082331126878000,9.1248779296875,-0.7305948138237,0.33658674359321594,1.8374826908111572
1696082331136877800,9.1348779296875,-0.7782423496246338,0.9841039180755615,2.27852725982666
1696082331146878000,9.1448779296875,-1.0225883722305298,1.884519338607788,2.632829189300537
1696082331156877800,9.1548779296875,-1.4917329549789429,2.6816983222961426,2.7458393573760986
1696082331166878000,9.1648779296875,-2.101987361907959,3.0940325260162354,2.560136318206787
1696082331176877800,9.1748779296875,-2.6590964794158936,2.755613088607788,2.2321016788482666
1696082331186878000,9.1848779296875,-2.9626965522766113,1.855197787284851,2.054950714111328
1696082331196877800,9.1948779296875,-2.9352076053619385,0.8985827565193176,2.1985039710998535
1696082331206878000,9.2048779296875,-2.6426031589508057,-0.006719517521560192,2.5583035945892334
1696082331216877800,9.2148779296875,-2.2705860137939453,-0.7764097452163696,2.8203649520874023
1696082331226878000,9.2248779296875,-2.031737804412842,-1.5552629232406616,2.7097983360290527
1696082331236877800,9.2348779296875,-1.930334210395813,-2.12397837638855,2.0971004962921143
1696082331246878000,9.2448779296875,-1.786780834197998,-2.492330312728882,1.244943380355835
1696082331256877800,9.2548779296875,-1.6303993463516235,-2.657874584197998,0.5204572081565857
1696082331266878000,9.2648779296875,-1.5632041692733765,-2.3322834968566895,0.2730567753314972
1696082331276877800,9.2748779296875,-1.5949691534042358,-1.4660766124725342,0.5473352670669556
1696082331286878000,9.2848779296875,-1.6682729721069336,-0.2736676335334778,0.9187413454055786
1696082331296877800,9.2948779296875,-1.6792685985565186,0.8423831462860107,1.1215485334396362
1696082331306878000,9.3048779296875,-1.588249683380127,1.423926830291748,1.1679743528366089
1696082331316877800,9.3148779296875,-1.4422528743743896,1.4404202699661255,1.1368201971054077
1696082331326878000,9.3248779296875,-1.303586483001709,1.151481032371521,1.0769554376602173
1696082331336877800,9.3348779296875,-1.2113457918167114,0.8637634515762329,0.9749409556388855
1696082331346878000,9.3448779296875,-1.1496484279632568,0.608421802520752,0.8607091307640076
1696082331356877800,9.3548779296875,-1.120937705039978,0.394618958234787,0.7721336483955383
1696082331366878000,9.3648779296875,-1.1032226085662842,0.20952677726745605,0.7342600226402283
1696082331376877800,9.3748779296875,-1.0879509449005127,0.11239920556545258,0.7318165898323059
1696082331386878000,9.3848779296875,-1.0684033632278442,0.1869247704744339,0.7244861721992493
1696082331396877800,9.3948779296875,-1.0231993198394775,0.5375614166259766,0.6927211880683899
1696082331406878000,9.4048779296875,-0.9327912330627441,0.9841039180755615,0.6041457056999207
1696082331416877800,9.4148779296875,-0.8197811841964722,1.3164145946502686,0.4599815309047699
1696082331426878000,9.4248779296875,-0.6878342628479004,1.4721852540969849,0.32131510972976685
1696082331436877800,9.4348779296875,-0.5375614166259766,1.436144232749939,0.20525072515010834
1696082331446878000,9.4448779296875,-0.37629300355911255,1.301142930984497,0.0910189226269722
1696082331456877800,9.4548779296875,-0.20952677726745605,1.156978726387024,-0.04153883829712868
1696082331466878000,9.4648779296875,-0.04337143152952194,1.0280861854553223,-0.1966986060142517
1696082331476877800,9.4748779296875,0.1264491081237793,0.9162978529930115,-0.36590829491615295
1696082331486878000,9.4848779296875,0.3072652220726013,0.8210029006004333,-0.5393940210342407
1696082331496877800,9.4948779296875,0.5027421116828918,0.6976081132888794,-0.7165449261665344
1696082331506878000,9.5048779296875,0.7098253965377808,0.5607742667198181,-0.9132435321807861
1696082331516877800,9.5148779296875,0.9169087409973145,0.423329621553421,-1.1447614431381226
1696082331526878000,9.5248779296875,1.0903944969177246,0.3072652220726013,-1.416596531867981
1696082331536877800,9.5348779296875,1.1728612184524536,0.2626720666885376,-1.6994271278381348
1696082331546878000,9.5448779296875,1.158811330795288,0.38179078698158264,-1.884519338607788
1696082331556877800,9.5548779296875,1.0378600358963013,0.7263187766075134,-1.8136589527130127
1696082331566878000,9.5648779296875,0.8191702961921692,1.2388347387313843,-1.490511178970337
1696082331576877800,9.5748779296875,0.5962044596672058,1.4269812107086182,-1.3420709371566772
1696082331586878000,9.5848779296875,0.5082398653030396,0.8460483551025391,-1.4477506875991821
1696082331596877800,9.5948779296875,0.4801400899887085,-0.08368854224681854,-1.36955988407135
1696082331606878000,9.6048779296875,0.2168571650981903,-0.8680394887924194,-0.7904596328735352
1696082331616877800,9.6148779296875,-0.32498031854629517,-1.0983357429504395,-0.02626720629632473
1696082331626878000,9.6248779296875,-0.7935139536857605,-1.1117748022079468,0.44104471802711487
1696082331636877800,9.6348779296875,-0.8546004891395569,-1.094059705734253,0.4813618063926697
1696082331646878000,9.6448779296875,-0.7336491346359253,-0.7397578358650208,0.22296582162380219
1696082331656877800,9.6548779296875,-0.5479460954666138,-0.21013765037059784,-0.1661553531885147
1696082331666878000,9.6648779296875,-0.22968533635139465,0.23151792585849762,-0.5589417219161987
1696082331676877800,9.6748779296875,0.20525072515010834,0.31581732630729675,-0.7629706859588623
1696082331686878000,9.6848779296875,0.46242499351501465,0.42149701714515686,-0.6823364496231079
1696082331696877800,9.6948779296875,0.43799036741256714,0.5687155723571777,-0.45142942667007446
1696082331706878000,9.7048779296875,0.3384193480014801,0.4990769028663635,-0.13011430203914642
1696082331716877800,9.7148779296875,0.19853121042251587,0.1466076523065567,-0.014049900695681572
1696082331726878000,9.7248779296875,0.03420845419168472,-0.5491678714752197,-0.375071257352829
1696082331736877800,9.7348779296875,0.08429940044879913,-1.671938180923462,-0.9364564418792725
1696082331746878000,9.7448779296875,0.20525072515010834,-3.2229249477386475,-1.0983357429504395
1696082331756877800,9.7548779296875,0.20586158335208893,-3.7647624015808105,-0.4288274049758911
1696082331766878000,9.7648779296875,0.09529497474431992,-3.0414979457855225,0.46181413531303406
1696082331776877800,9.7748779296875,0.04703662544488907,-2.059837579727173,0.8503243923187256
1696082331786878000,9.7848779296875,0.15515977144241333,-1.0812314748764038,0.7153232097625732
1696082331796877800,9.7948779296875,0.4306600093841553,-0.1417207419872284,0.30054569244384766
1696082331806877700,9.804877685546876,0.8692612648010254,0.5821545720100403,-0.07452555745840073
1696082331816877600,9.814877685546875,1.3261884450912476,1.0836749076843262,-0.19914206862449646
1696082331826877700,9.824877685546875,1.5998560190200806,1.4672982692718506,-0.1875356286764145
1696082331836877600,9.834877685546875,1.6694947481155396,1.670716404914856,-0.24495697021484375
1696082331846877700,9.844877685546875,1.6407840251922607,1.6945401430130005,-0.43799036741256714
1696082331856877600,9.854877685546874,1.5167783498764038,1.587027907371521,-0.7605272531509399
1696082331866877700,9.864877685546874,1.378722906112671,1.2785409688949585,-1.2687671184539795
1696082331876877600,9.874877685546876,1.3267992734909058,0.8161159753799438,-1.8472565412521362
1696082331886877700,9.884877685546876,1.376279354095459,0.28588494658470154,-2.291966438293457
1696082331896877600,9.894877685546875,1.4789047241210938,-0.4031710624694824,-2.5534167289733887
1696082331906877700,9.904877685546875,1.5790866613388062,-1.1997393369674683,-2.6261096000671387
1696082331916877600,9.914877685546875,1.6041321754455566,-1.966986060142517,-2.504547595977783
1696082331926877700,9.924877685546875,1.4899003505706787,-2.5051584243774414,-2.185675859451294
1696082331936877600,9.934877685546875,1.2522737979888916,-2.6206119060516357,-1.6664403676986694
1696082331946877700,9.944877685546874,0.9718865752220154,-2.1960606575012207,-1.0580185651779175
1696082331956877600,9.954877685546874,0.7281513810157776,-1.386053204536438,-0.5375614166259766
1696082331966877700,9.964877685546876,0.5674937963485718,-0.5693264007568359,-0.20525072515010834
1696082331976877600,9.974877685546875,0.4648684561252594,0.04459316283464432,-0.03298672288656235
1696082331986877700,9.984877685546875,0.4080579876899719,0.39095374941825867,0.04337143152952194
1696082331996877600,9.994877685546875,0.3988949954509735,0.5192354321479797,0.09040805697441101
1696082332006877700,10.004877685546875,0.4605923891067505,0.39156460762023926,0.02015855349600315
1696082332016877600,10.014877685546875,0.5369505286216736,-0.12461651116609573,-0.29565876722335815
1696082332026877700,10.024877685546874,0.5962044596672058,-0.7489207983016968,-0.7354817390441895
1696082332036877600,10.034877685546874,0.6725626587867737,-1.0995573997497559,-1.0482447147369385
1696082332046877700,10.044877685546876,0.7812966704368591,-1.1331549882888794,-1.1856894493103027
1696082332056877600,10.054877685546876,0.8686503767967224,-1.006095051765442,-1.1691961288452148
1696082332066877700,10.064877685546875,0.8894197940826416,-0.8576548099517822,-1.043968677520752
1696082332076877600,10.074877685546875,0.8313875794410706,-0.7354817390441895,-0.9010262489318848
1696082332086877700,10.084877685546875,0.7312057018280029,-0.6243042945861816,-0.8307767510414124
1696082332096877600,10.094877685546875,0.6585127115249634,-0.46242499351501465,-0.8436049222946167
1696082332106878000,10.1048779296875,0.66584312915802,-0.2528982162475586,-0.8888089060783386
1696082332116877800,10.1148779296875,0.7141014933586121,-0.04398229718208313,-0.9175195693969727
1696082332126878000,10.1248779296875,0.7825183868408203,0.10567969083786011,-0.8515461683273315
1696082332136877800,10.1348779296875,0.8527678847312927,0.10018189996480942,-0.6493497490882874
1696082332146878000,10.1448779296875,0.9004153609275818,-0.09285151958465576,-0.32986724376678467
1696082332156877800,10.1548779296875,0.902247965335846,-0.4288274049758911,0.024434609338641167
1696082332166878000,10.1648779296875,0.8509352803230286,-0.8429940342903137,0.29993483424186707
1696082332176877800,10.1748779296875,0.7904596328735352,-1.2137892246246338,0.42210787534713745
1696082332186878000,10.1848779296875,0.7538077235221863,-1.3829989433288574,0.41111230850219727
1696082332196877800,10.1948779296875,0.720820963382721,-1.2718214988708496,0.3683517575263977
1696082332206878000,10.2048779296875,0.6615670323371887,-0.9132435321807861,0.3243694305419922
1696082332216877800,10.2148779296875,0.5448917746543884,-0.5149593949317932,0.24373523890972137
1696082332226878000,10.2248779296875,0.3390302062034607,-0.32131510972976685,0.11301007121801376
1696082332236877800,10.2348779296875,0.05253441259264946,-0.37079519033432007,0.00855211354792118
1696082332246878000,10.2448779296875,-0.2681698501110077,-0.44776421785354614,0.10384709388017654
1696082332256877800,10.2548779296875,-0.6279694437980652,-0.30482175946235657,0.4709770977497101
1696082332266878000,10.2648779296875,-0.9731083512306213,-0.08857546001672745,0.940732479095459
1696082332276877800,10.2748779296875,-1.19607412815094,-0.02015855349600315,1.3646728992462158
1696082332286878000,10.2848779296875,-1.2779301404953003,0.016493361443281174,1.824654459953308
1696082332296877800,10.2948779296875,-1.3176363706588745,0.32986724376678467,2.4098634719848633
1696082332306878000,10.3048779296875,-1.4776830673217773,0.9468411207199097,2.927877187728882
1696082332316877800,10.3148779296875,-1.8417587280273438,1.6255123615264893,3.115412712097168
1696082332326878000,10.3248779296875,-2.3823745250701904,2.20278000831604,2.9639182090759277
1696082332336877800,10.3348779296875,-2.9156599044799805,2.324953079223633,2.5888469219207764
1696082332346878000,10.3448779296875,-3.2424726486206055,1.7831156253814697,2.194838762283325
1696082332356877800,10.3548779296875,-3.2290337085723877,1.0677924156188965,1.996307611465454
1696082332366878000,10.3648779296875,-2.9657506942749023,0.5277875661849976,2.0451767444610596
1696082332376877800,10.3748779296875,-2.615725040435791,0.01710422709584236,2.2009475231170654
1696082332386878000,10.3848779296875,-2.2626447677612305,-0.8185594081878662,2.314568519592285
1696082332396877800,10.3948779296875,-2.0677788257598877,-1.5931365489959717,2.155132532119751
1696082332406878000,10.4048779296875,-1.9694294929504395,-1.8863518238067627,1.5992451906204224
1696082332416877800,10.4148779296875,-1.807550311088562,-1.9804251194000244,0.9963212013244629
1696082332426878000,10.4248779296875,-1.645671010017395,-1.660942554473877,0.7147123217582703
1696082332436877800,10.4348779296875,-1.5638149976730347,-0.7971791625022888,0.7745771408081055
1696082332446878000,10.4448779296875,-1.5265522003173828,0.2480112910270691,0.9761626720428467
1696082332456877800,10.4548779296875,-1.451415777206421,1.1172724962234497,1.1423180103302002
1696082332466878000,10.4648779296875,-1.29381263256073,1.4141530990600586,1.19912850856781
1696082332476877800,10.4748779296875,-1.1282681226730347,1.2553280591964722,1.1575896739959717
1696082332486878000,10.4848779296875,-1.026253581047058,1.0390818119049072,1.0018190145492554
1696082332496877800,10.4948779296875,-0.988990843296051,0.8625417351722717,0.8057312369346619
1696082332506878000,10.5048779296875,-1.0256427526474,0.7055493593215942,0.6542366743087769
1696082332516877800,10.5148779296875,-1.1105530261993408,0.5809328556060791,0.5900958180427551
1696082332526878000,10.5248779296875,-1.1966849565505981,0.47342056035995483,0.5876523852348328
1696082332536877800,10.5348779296875,-1.2669345140457153,0.3982841372489929,0.6261368989944458
1696082332546878000,10.5448779296875,-1.2834278345108032,0.4434881806373596,0.6542366743087769
1696082332556877800,10.5548779296875,-1.228450059890747,0.6432411074638367,0.6285803318023682
1696082332566878000,10.5648779296875,-1.1129964590072632,1.007927656173706,0.53328537940979
1696082332576877800,10.5748779296875,-0.9566149711608887,1.4202617406845093,0.39095374941825867
1696082332586878000,10.5848779296875,-0.7819074988365173,1.7037031650543213,0.2583959996700287
1696082332596877800,10.5948779296875,-0.598647952079773,1.7446311712265015,0.1466076523065567
1696082332606878000,10.6048779296875,-0.41599923372268677,1.580308437347412,0.04092797264456749
1696082332616877800,10.6148779296875,-0.24434609711170197,1.33168625831604,-0.08368854224681854
1696082332626878000,10.6248779296875,-0.08735372871160507,1.0891727209091187,-0.24678955972194672
1696082332636877800,10.6348779296875,0.07696902006864548,0.9101892113685608,-0.44593164324760437
1696082332646878000,10.6448779296875,0.27550023794174194,0.7922922372817993,-0.6664539575576782
1696082332656877800,10.6548779296875,0.5259549617767334,0.6352998614311218,-0.901637077331543
1696082332666878000,10.6648779296875,0.8106181621551514,0.423329621553421,-1.150259256362915
1696082332676877800,10.6748779296875,1.081842303276062,0.19120082259178162,-1.4312572479248047
1696082332686878000,10.6848779296875,1.2589932680130005,0.04581489413976669,-1.709811806678772
1696082332696877800,10.6948779296875,1.312138557434082,0.1368338167667389,-1.9248363971710205
1696082332706878000,10.7048779296875,1.2944234609603882,0.4911356568336487,-2.0189096927642822
1696082332716877800,10.7148779296875,1.187522053718567,1.0378600358963013,-1.804495930671692
1696082332726877200,10.724877197265625,0.9089674949645996,1.7373007535934448,-1.2101240158081055
1696082332736877000,10.734876953125,0.6047565937042236,1.9523253440856934,-0.8943067193031311
1696082332746877200,10.744877197265625,0.39584067463874817,1.2486085891723633,-0.9993755221366882
1696082332756877000,10.754876953125,0.15515977144241333,0.2223549485206604,-0.9993755221366882
1696082332766877200,10.764877197265625,-0.2119702398777008,-0.5290092825889587,-0.6163630485534668
1696082332776877000,10.774876953125,-0.6023131608963013,-1.0500773191452026,0.06108652427792549
1696082332786877200,10.784877197265626,-0.7800748944282532,-1.4092661142349243,0.5448917746543884
1696082332796877000,10.794876953125,-0.8448266386985779,-1.5057828426361084,0.5491678714752197
1696082332806877200,10.804877197265625,-0.7819074988365173,-1.378722906112671,0.18020524084568024
1696082332816877000,10.814876953125,-0.5601634383201599,-0.9834930300712585,-0.31093040108680725
1696082332826877200,10.824877197265625,-0.1618792861700058,-0.46792277693748474,-0.6640105247497559
1696082332836877000,10.834876953125,0.15943582355976105,-0.14966198801994324,-0.7293730974197388
1696082332846877200,10.844877197265625,0.252287358045578,-0.40072759985923767,-0.826500654220581
1696082332856877000,10.854876953125,0.2932153046131134,-0.5668829679489136,-0.7819074988365173
1696082332866877200,10.864877197265624,0.3384193480014801,-0.3738495409488678,-0.1918116807937622
1696082332876877000,10.874876953125,0.21319197118282318,-0.6346889734268188,0.5320636034011841
1696082332886877200,10.884877197265626,0.07513642311096191,-0.9486737251281738,0.8924741148948669
1696082332896877000,10.894876953125,0.06108652427792549,-0.5656611919403076,0.8833111524581909
1696082332906877200,10.904877197265625,0.1820378452539444,0.24007004499435425,0.7666358947753906
1696082332916877000,10.914876953125,0.36590829491615295,0.6420193910598755,0.5674937963485718
1696082332926877200,10.924877197265625,0.5381723046302795,0.4593706727027893,0.23640485107898712
1696082332936877000,10.934876953125,0.6432411074638367,0.09834930300712585,-0.16859880089759827
1696082332946877200,10.944877197265624,0.7525860071182251,-0.17776179313659668,-0.48319441080093384
1696082332956877000,10.954876953125,0.9034696817398071,-0.3579670190811157,-0.6792821288108826
1696082332966877200,10.964877197265626,1.0335839986801147,-0.42577308416366577,-0.7629706859588623
1696082332976877000,10.974876953125,1.1355985403060913,-0.4202753007411957,-0.7446447610855103
1696082332986877200,10.984877197265625,1.149037480354309,-0.26939156651496887,-0.7623597979545593
1696082332996877000,10.994876953125,1.0983357429504395,-0.13927727937698364,-1.016479730606079
1696082333006877200,11.004877197265625,1.1301007270812988,-0.06475171446800232,-1.4844025373458862
1696082333016877000,11.014876953125,1.2223412990570068,-0.07024950534105301,-1.9168951511383057
1696082333026878000,11.0248779296875,1.3084733486175537,-0.17043140530586243,-2.182621479034424
1696082333036877800,11.0348779296875,1.3542882204055786,-0.3579670190811157,-2.27852725982666
1696082333046878000,11.0448779296875,1.3469579219818115,-0.5729916095733643,-2.199725866317749
1696082333342664400,11.34066455078125,0.7257078886032104,-0.7177666425704956,0.769690215587616
1696082333352664600,11.35066455078125,0.7263187766075134,-0.5907067060470581,0.7843509912490845
1696082333362664400,11.36066455078125,0.7226535677909851,-0.4966334402561188,0.5589417219161987
1696082333372664600,11.37066455078125,0.6664539575576782,-0.5125159621238708,0.14538592100143433
1696082333382664400,11.38066455078125,0.49357911944389343,-0.5650503635406494,-0.2822197377681732
1696082333392664600,11.39066455078125,0.22479841113090515,-0.5345070958137512,-0.5064072608947754
1696082333402664400,11.40066455078125,-0.0659734457731247,-0.37140607833862305,-0.3927863538265228
1696082333412664600,11.41066455078125,-0.38117989897727966,-0.08124507963657379,0.03848451003432274
1696082333422664400,11.42066455078125,-0.7171558141708374,0.2028072625398636,0.6035348773002625
1696082333432664600,11.43066455078125,-1.0085384845733643,0.3500257730484009,1.0751228332519531
1696082333442664400,11.44066455078125,-1.215621829032898,0.39706242084503174,1.3823879957199097
1696082333452664600,11.45066455078125,-1.348179578781128,0.5546656250953674,1.6022995710372925
1696082333462664700,11.460664794921875,-1.5210545063018799,0.9944885969161987,1.845423936843872
1696082333472664600,11.47066455078125,-1.852143406867981,1.6212363243103027,2.1233675479888916
1696082333482664700,11.480664794921875,-2.284025192260742,1.947438359260559,2.2992968559265137
1696082333492664600,11.49066455078125,-2.6566529273986816,1.7085901498794556,2.317011833190918
1696082333502664700,11.500664794921875,-2.8955013751983643,0.9957103729248047,2.253481864929199
1696082333512664600,11.51066455078125,-2.9333748817443848,0.09346238523721695,2.2241604328155518
1696082333522664700,11.520664794921874,-2.752558708190918,-0.7446447610855103,2.358550786972046
1696082333532664600,11.53066455078125,-2.47094988822937,-1.416596531867981,2.5729644298553467
1696082333542664700,11.540664794921875,-2.1820106506347656,-1.6988162994384766,2.632218360900879
1696082333552664600,11.55066455078125,-1.9914207458496094,-1.632842779159546,2.3884830474853516
1696082333562664700,11.560664794921875,-1.7983872890472412,-1.0586295127868652,1.832595705986023
1696082333572664600,11.57066455078125,-1.522887110710144,-0.49357911944389343,1.2877039909362793
1696082333582664700,11.580664794921875,-1.2846496105194092,-0.2993239760398865,1.0280861854553223
1696082333592664600,11.59066455078125,-1.205847978591919,-0.07880161702632904,1.0067058801651
1696082333602664700,11.600664794921874,-1.2290608882904053,0.17959438264369965,1.1325441598892212
1696082333612664600,11.61066455078125,-1.2693779468536377,0.44715335965156555,1.2822061777114868
1696082333622664700,11.620664794921876,-1.2932016849517822,0.665232241153717,1.36650550365448
1696082333632664600,11.63066455078125,-1.2736539840698242,0.7684684991836548,1.3530665636062622
1696082333642664700,11.640664794921875,-1.2504411935806274,0.7819074988365173,1.2718214988708496
1696082333652664600,11.65066455078125,-1.2394455671310425,0.7709119319915771,1.166752576828003
1696082333662664700,11.660664794921875,-1.2412781715393066,0.7104362845420837,1.103833556175232
1696082333672664600,11.67066455078125,-1.2388347387313843,0.5491678714752197,1.0910053253173828
1696082333682664700,11.680664794921874,-1.2296717166900635,0.3084869384765625,1.094059705734253
1696082333692664600,11.69066455078125,-1.218676209449768,0.0555887371301651,1.0696250200271606
1696082333702664700,11.700664794921876,-1.2046263217926025,-0.07330382615327835,0.9938777685165405
1696082333712664600,11.71066455078125,-1.1643091440200806,0.003054326167330146,0.8912523984909058
1696082333722664700,11.720664794921875,-1.0836749076843262,0.2064724564552307,0.7751879692077637
1696082333732664600,11.73066455078125,-0.9651671051979065,0.4807509481906891,0.6481280326843262
1696082333742664700,11.740664794921875,-0.8148942589759827,0.8155050873756409,0.5198463201522827
1696082333752664600,11.75066455078125,-0.6426302194595337,1.0592403411865234,0.39095374941825867
1696082333762664700,11.760664794921874,-0.4715879559516907,1.0812314748764038,0.25473082065582275
1696082333772664600,11.77066455078125,-0.3225368559360504,0.9957103729248047,0.12217304855585098
1696082333782664700,11.780664794921876,-0.18936823308467865,0.8955284357070923,-0.018936822190880775
1696082333792664600,11.79066455078125,-0.05375614017248154,0.8210029006004333,-0.17592918872833252
1696082333802664700,11.800664794921875,0.1014036312699318,0.7843509912490845,-0.36163222789764404
1696082333812664600,11.81066455078125,0.2883284091949463,0.7641924023628235,-0.5705481171607971
1696082333822664700,11.820664794921875,0.5290092825889587,0.6994407176971436,-0.7941248416900635
1696082333832664600,11.83066455078125,0.808174729347229,0.5583308339118958,-1.0299187898635864
1696082333842664700,11.840664794921874,1.0897835493087769,0.4105014503002167,-1.2779301404953003
1696082333852664600,11.85066455078125,1.3139711618423462,0.3017674386501312,-1.5375478267669678
1696082333862664700,11.860664794921876,1.4062118530273438,0.28038713335990906,-1.7861700057983398
1696082333872664600,11.87066455078125,1.3561208248138428,0.4190535545349121,-1.9785925149917603
1696082333882664700,11.880664794921875,1.1649199724197388,0.7238753437995911,-1.9608774185180664
1696082333892664600,11.89066455078125,0.8258898258209229,1.176526427268982,-1.6413949728012085
1696082333902664700,11.900664794921875,0.49296826124191284,1.3744467496871948,-1.4453071355819702
1696082333912664600,11.91066455078125,0.33047810196876526,1.1068878173828125,-1.4306464195251465
1696082333922664700,11.920664794921874,0.24984388053417206,0.375071257352829,-1.238223910331726
1696082333932664600,11.93066455078125,-0.004886921960860491,-0.4660901725292206,-0.675006091594696
1696082333942664700,11.940664794921876,-0.5253441333770752,-0.8912523984909058,0.07330382615327835
1696082333952664600,11.95066455078125,-0.9248499870300293,-0.9957103729248047,0.5180137157440186
1696082333962664700,11.960664794921875,-1.0005972385406494,-0.9761626720428467,0.5070181488990784
1696082333972664600,11.97066455078125,-0.9095783233642578,-0.8381071090698242,0.19486601650714874
1696082333982664700,11.980664794921875,-0.8191702961921692,-0.7104362845420837,-0.18448130786418915
1696082333992664600,11.99066455078125,-0.5400048494338989,-0.5174028873443604,-0.3139847218990326
1696082334002664700,12.000664794921875,-0.23151792585849762,-0.5155702829360962,-0.37629300355911255
1696082334012664600,12.01066455078125,0.01466076634824276,-0.6969972252845764,-0.33108896017074585
1696082334022664700,12.020664794921874,0.1966986060142517,-0.5858197808265686,-0.2638937830924988
1696082334032664600,12.03066455078125,0.30970868468284607,-0.07757988572120667,0.01771509274840355
1696082334042664700,12.040664794921875,0.28527405858039856,0.08857546001672745,0.35735616087913513
1696082334052664600,12.05066455078125,0.21380282938480377,-0.5650503635406494,0.5070181488990784
1696082334062664700,12.060664794921875,0.25961771607398987,-1.1661417484283447,0.5644394755363464
1696082334072664600,12.07066455078125,0.34208452701568604,-0.8710938692092896,0.6548475623130798
1696082334082664700,12.080664794921875,0.4080579876899719,-0.04642575979232788,0.6841690540313721
1696082334092664600,12.09066455078125,0.4612032473087311,0.5174028873443604,0.6157521605491638
1696082334102664700,12.100664794921874,0.5626068711280823,0.5002986192703247,0.4495968222618103
1696082334112664600,12.11066455078125,0.7409795522689819,0.09834930300712585,0.18875735998153687
1696082334122664700,12.120664794921876,0.9676105380058289,-0.3787364661693573,-0.12461651116609573
1696082334132664600,12.13066455078125,1.1459832191467285,-0.7195992469787598,-0.4392121136188507
1696082334142664700,12.140664794921875,1.2107349634170532,-0.9248499870300293,-0.7159340381622314
1696082334152664600,12.15066455078125,1.169806957244873,-0.9957103729248047,-0.9926560521125793
1696082334162664700,12.160664794921875,1.1032226085662842,-0.9724974632263184,-1.32863187789917
1696082334172664600,12.17066455078125,1.130711555480957,-0.8436049222946167,-1.6572774648666382
1696082334182664700,12.180664794921874,1.2455542087554932,-0.6994407176971436,-1.9480493068695068
1696082334192664600,12.19066455078125,1.3524556159973145,-0.5528330206871033,-2.1172590255737305
1696082334202664700,12.200664794921876,1.368949055671692,-0.3903428912162781,-2.10809588432312
1696082334212664600,12.21066455078125,1.2852604389190674,-0.20891591906547546,-1.938886284828186
1696082334222664700,12.220664794921875,1.1606439352035522,-0.10201449692249298,-1.6499470472335815
1696082334232664600,12.23066455078125,1.0421360731124878,-0.060475658625364304,-1.3243558406829834
1696082334242664700,12.240664794921875,0.9456194043159485,0.01160643994808197,-1.0384708642959595
1696082334252664600,12.25066455078125,0.8539896011352539,0.10567969083786011,-0.8399397134780884
1696082334262664700,12.260664794921874,0.7800748944282532,0.21319197118282318,-0.740368664264679
1696082334272664600,12.27066455078125,0.7580837607383728,0.28466320037841797,-0.7232644557952881
1696082334282664700,12.280664794921876,0.788627028465271,0.13988813757896423,-0.7874053120613098
1696082334292664600,12.29066455078125,0.7684684991836548,0.036041051149368286,-0.7489207983016968
1696082334302664700,12.300664794921875,0.7434229850769043,-0.028099801391363144,-0.6438519954681396
1696082334312664600,12.31066455078125,0.7452555894851685,-0.019547687843441963,-0.5491678714752197
1696082334322664700,12.320664794921875,0.759305477142334,-0.14355333149433136,-0.5326744914054871
1696082334332664600,12.33066455078125,0.7446447610855103,-0.36713001132011414,-0.6157521605491638
1696082334342664700,12.340664794921874,0.7165449261665344,-0.6285803318023682,-0.808174729347229
1696082334352664600,12.35066455078125,0.6823364496231079,-0.856433093547821,-1.0739010572433472
1696082334362664700,12.360664794921876,0.6725626587867737,-0.949895441532135,-1.2724323272705078
1696082334372664600,12.37066455078125,0.7147123217582703,-0.9150761365890503,-1.3072515726089478
1696082334382664700,12.380664794921875,0.7660250067710876,-0.7953465580940247,-1.1759155988693237
1696082334392664600,12.39066455078125,0.759916365146637,-0.5736024379730225,-0.9334021210670471
1696082334402664700,12.400664794921875,0.6640105247497559,-0.34025195240974426,-0.6823364496231079
1696082334412664600,12.41066455078125,0.5375614166259766,-0.20952677726745605,-0.5345070958137512
1696082334422664700,12.420664794921874,0.4593706727027893,-0.17959438264369965,-0.5308418869972229
1696082334432664600,12.43066455078125,0.42210787534713745,-0.20586158335208893,-0.6493497490882874
1696082334442664700,12.440664794921876,0.43615779280662537,-0.2382374405860901,-0.8026769161224365
1696082334452664600,12.45066455078125,0.5002986192703247,-0.2070833146572113,-0.8802568316459656
1696082334462664700,12.460664794921875,0.5864306092262268,-0.1459967941045761,-0.8326093554496765
1696082334472664600,12.47066455078125,0.6762278079986572,-0.17470745742321014,-0.6688974499702454
1696082334482664700,12.480664794921875,0.7611380815505981,-0.3292563557624817,-0.4129449129104614
1696082342251838000,20.249837890625,-0.03176499158143997,-0.033597588539123535,-0.010995574295520782
1696082342261837800,20.259837890625,-0.02871066704392433,-0.04581489413976669,-0.02076941914856434
1696082342271838000,20.269837890625,-0.01710422709584236,-0.05253441259264946,-0.031154127791523933
1696082342281838300,20.27983837890625,-0.021380282938480377,-0.02687807008624077,-0.028099801391363144
1696082342291829200,20.289829345703126,-0.02076941914856434,-0.01771509274840355,-0.015271631069481373
1696082342301829400,20.299829345703124,-0.01466076634824276,0.018325956538319588,-0.009773843921720982
1696082342311829200,20.309829345703125,-0.019547687843441963,0.042760565876960754,-0.02076941914856434
1696082342321829400,20.319829345703123,-0.0354301854968071,0.006719517521560192,-0.014049900695681572
1696082342331829200,20.329829345703125,-0.03726277872920036,-0.01160643994808197,-0.016493361443281174
1696082342341829400,20.339829345703127,-0.04214970022439957,-0.028099801391363144,-0.012828170321881771
1696082342351829200,20.349829345703125,-0.04214970022439957,-0.0555887371301651,-0.02321287989616394
1696082342361829400,20.359829345703126,-0.03298672288656235,-0.06475171446800232,-0.028099801391363144
1696082342371829200,20.369829345703124,-0.02932153269648552,-0.03848451003432274,-0.014049900695681572
1696082342381829400,20.379829345703126,-0.03481931984424591,0.01771509274840355,-0.005497787147760391
1696082342391829200,20.389829345703124,-0.036041051149368286,0.0354301854968071,0.018325956538319588
1696082342401829400,20.399829345703125,-0.0354301854968071,0.05497787147760391,0.02932153269648552
1696082342411829200,20.409829345703123,-0.030543262138962746,0.06780604273080826,0.03481931984424591
1696082342421829400,20.419829345703125,-0.03420845419168472,0.05192354694008827,0.030543262138962746
1696082342431829200,20.429829345703126,-0.036041051149368286,0.02626720629632473,0.05375614017248154
1696082342441829400,20.439829345703124,-0.04581489413976669,0.021991148591041565,0.06414084881544113
1696082342451829200,20.449829345703126,-0.05864306539297104,0.014049900695681572,0.08246681094169617
1696082342461829400,20.459829345703124,-0.05803219974040985,-0.014049900695681572,0.07880161702632904
1696082342471829500,20.46982958984375,-0.06230825558304787,-0.04886921867728233,0.05803219974040985
1696082342481829400,20.479829345703124,-0.07819075137376785,-0.05009094998240471,0.04642575979232788
1696082342491829500,20.48982958984375,-0.07819075137376785,-0.03237585723400116,0.05314527451992035
1696082342501829400,20.499829345703127,-0.08002334833145142,-0.01466076634824276,0.0507018156349659
1696082342511829500,20.50982958984375,-0.07696902006864548,0.001832595793530345,0.05864306539297104
1696082342521829400,20.519829345703126,-0.07208210229873657,0.00733038317412138,0.06475171446800232
1696082342531829500,20.52982958984375,-0.07635815441608429,0.01038470957428217,0.0555887371301651
1696082342541829400,20.539829345703126,-0.08002334833145142,0.009773843921720982,0.05619960278272629
1696082342551829500,20.54982958984375,-0.08429940044879913,0.009773843921720982,0.05497787147760391
1696082342561829400,20.559829345703125,-0.0910189226269722,-0.0024434609804302454,0.054367005825042725
1696082342571829500,20.56982958984375,-0.09468411654233932,-0.02932153269648552,0.05619960278272629
1696082342581829400,20.579829345703125,-0.08796459436416626,-0.03420845419168472,0.039095375686883926
1696082342591830300,20.589830322265627,-0.0806342139840126,-0.022602014243602753,0.021380282938480377
1696082342601830400,20.599830322265625,-0.07391469180583954,-0.051312681287527084,0.029932396486401558
1696082342611830300,20.609830322265626,-0.056810468435287476,-0.03726277872920036,0.039706241339445114
1696082342621830400,20.619830322265624,-0.054367005825042725,-0.004886921960860491,0.045204028487205505
1696082342631830300,20.629830322265626,-0.05253441259264946,0.001832595793530345,0.05314527451992035
1696082342641830400,20.639830322265624,-0.04703662544488907,0.02321287989616394,0.05192354694008827
1696082342651830300,20.649830322265625,-0.04948008432984352,0.018325956538319588,0.05253441259264946
1696082342661830400,20.659830322265623,-0.04948008432984352,0.02687807008624077,0.0555887371301651
1696082342671830300,20.669830322265625,-0.04886921867728233,0.028099801391363144,0.05253441259264946
1696082342681830400,20.679830322265627,-0.0403171069920063,0.012828170321881771,0.036041051149368286
1696082342691830300,20.689830322265625,-0.0354301854968071,0.0006108652451075613,0.02626720629632473
1696082342701830400,20.699830322265626,-0.03298672288656235,-0.006719517521560192,0.019547687843441963
1696082342711830300,20.709830322265624,-0.03481931984424591,0.00427605677396059,0.03237585723400116
1696082342721830400,20.719830322265626,-0.02871066704392433,-0.012217304669320583,0.036041051149368286
1696082342731830300,20.729830322265624,-0.015882495790719986,-0.01038470957428217,0.02626720629632473
1696082342741830400,20.739830322265625,-0.009773843921720982,-0.01771509274840355,0.016493361443281174
1696082342751830300,20.749830322265623,-0.0024434609804302454,-0.04886921867728233,-0.00733038317412138
1696082342761830100,20.759830078125,-0.003054326167330146,-0.08185594528913498,-0.009773843921720982
1696082342771830300,20.769830322265626,-0.00733038317412138,-0.06352998316287994,-0.00366519158706069
1696082342781830100,20.779830078125,-0.0006108652451075613,0.003054326167330146,-0.00427605677396059
1696082342791830300,20.789830322265626,0.004886921960860491,0.03237585723400116,-0.003054326167330146
1696082342801830100,20.799830078125,0.01038470957428217,0.021991148591041565,0.0006108652451075613
1696082342811830300,20.809830322265626,0.01466076634824276,0.003054326167330146,-0.0024434609804302454
1696082342821830100,20.819830078125,0.01710422709584236,0.016493361443281174,-0.003054326167330146
1696082342831830300,20.829830322265625,0.02076941914856434,0.029932396486401558,0.001832595793530345
1696082342841830100,20.839830078125,0.029932396486401558,0.01710422709584236,0.009773843921720982
